,participant_id_in_session,participant_code,participant_time_started,player_id,player_total_payoff,player_tax_office_decision,player_company_decision,p1s1,p2s1,s1,s2,group_id_in_subsession,round_number,session_code,framed,dataset,game_id,p1s1_cumulative,p2s1_cumulative,D-factor,CRUD,PATHY,EGO,SPITE,MACH,SAD,SCTR,FRUST,NARC,PENT,MDIS,GRE,gender,p1_payoff,p2_payoff,degree_str,degree,Age,age_str,nationality,s1_cumulative,s1_freq,Opponent S1 (t-1),opponent_s1_freq_prev,Own S1 Freq. (t-1),german_nat,Female,gender_Male,gender_ND,gender_Other,Framing,treat_unframed,treatment,react_possible_p1,react_possible_p2,p1s1_change,p2s1_change,STEM,non_STEM
280,1,265l99ai,2021-03-15 10:12:08.650239+00:00,1,14,Don't Control,,0,0,0,1,1,1,7igvdhlu,1,15,151,0,0,2.6,3.0,3.0,2.666666667,2.5,2.0,2.0,2.5,2.5,1.666666667,4.5,5,1,2,14,0,International Taxation and Law,23,2,18-24,Germany,0,0.0,-1.0,0.0,0.0,1,1,False,False,False,1,False,framed,0,0,0,0,0,1
350,2,2fsj9qvt,2021-03-15 10:12:09.038959+00:00,2,14,,Don't Cheat,0,0,0,1,1,1,7igvdhlu,1,15,151,0,0,2.228571429,2.0,2.5,2.333333333,1.5,3.5,1.6,2.0,1.5,2.333333333,3.0,1,2,1,0,14,"Agribusiness, B.A.",1,2,18-24,Viet Nam,0,0.0,-1.0,0.0,0.0,0,0,True,False,False,1,False,framed,0,0,0,0,1,0
281,1,265l99ai,2021-03-15 10:12:08.650239+00:00,1,28,Don't Control,,0,0,0,1,1,2,7igvdhlu,1,15,151,0,0,2.6,3.0,3.0,2.666666667,2.5,2.0,2.0,2.5,2.5,1.666666667,4.5,5,1,2,14,0,International Taxation and Law,23,2,18-24,Germany,0,0.0,0.0,0.0,0.0,1,1,False,False,False,1,False,framed,0,0,0,0,0,1
351,2,2fsj9qvt,2021-03-15 10:12:09.038959+00:00,2,28,,Don't Cheat,0,0,0,1,1,2,7igvdhlu,1,15,151,0,0,2.228571429,2.0,2.5,2.333333333,1.5,3.5,1.6,2.0,1.5,2.333333333,3.0,1,2,1,0,14,"Agribusiness, B.A.",1,2,18-24,Viet Nam,0,0.0,0.0,0.0,0.0,0,0,True,False,False,1,False,framed,0,0,0,0,1,0
282,1,265l99ai,2021-03-15 10:12:08.650239+00:00,1,42,Don't Control,,0,0,0,1,1,3,7igvdhlu,1,15,151,0,0,2.6,3.0,3.0,2.666666667,2.5,2.0,2.0,2.5,2.5,1.666666667,4.5,5,1,2,14,0,International Taxation and Law,23,2,18-24,Germany,0,0.0,0.0,0.0,0.0,1,1,False,False,False,1,False,framed,0,0,0,0,0,1
352,2,2fsj9qvt,2021-03-15 10:12:09.038959+00:00,2,42,,Don't Cheat,0,0,0,1,1,3,7igvdhlu,1,15,151,0,0,2.228571429,2.0,2.5,2.333333333,1.5,3.5,1.6,2.0,1.5,2.333333333,3.0,1,2,1,0,14,"Agribusiness, B.A.",1,2,18-24,Viet Nam,0,0.0,0.0,0.0,0.0,0,0,True,False,False,1,False,framed,0,0,0,0,1,0
283,1,265l99ai,2021-03-15 10:12:08.650239+00:00,1,56,Don't Control,,0,0,0,1,1,4,7igvdhlu,1,15,151,0,0,2.6,3.0,3.0,2.666666667,2.5,2.0,2.0,2.5,2.5,1.666666667,4.5,5,1,2,14,0,International Taxation and Law,23,2,18-24,Germany,0,0.0,0.0,0.0,0.0,1,1,False,False,False,1,False,framed,0,0,0,0,0,1
353,2,2fsj9qvt,2021-03-15 10:12:09.038959+00:00,2,56,,Don't Cheat,0,0,0,1,1,4,7igvdhlu,1,15,151,0,0,2.228571429,2.0,2.5,2.333333333,1.5,3.5,1.6,2.0,1.5,2.333333333,3.0,1,2,1,0,14,"Agribusiness, B.A.",1,2,18-24,Viet Nam,0,0.0,0.0,0.0,0.0,0,0,True,False,False,1,False,framed,0,0,0,0,1,0
284,1,265l99ai,2021-03-15 10:12:08.650239+00:00,1,70,Don't Control,,0,0,0,1,1,5,7igvdhlu,1,15,151,0,0,2.6,3.0,3.0,2.666666667,2.5,2.0,2.0,2.5,2.5,1.666666667,4.5,5,1,2,14,0,International Taxation and Law,23,2,18-24,Germany,0,0.0,0.0,0.0,0.0,1,1,False,False,False,1,False,framed,0,0,0,0,0,1
354,2,2fsj9qvt,2021-03-15 10:12:09.038959+00:00,2,70,,Don't Cheat,0,0,0,1,1,5,7igvdhlu,1,15,151,0,0,2.228571429,2.0,2.5,2.333333333,1.5,3.5,1.6,2.0,1.5,2.333333333,3.0,1,2,1,0,14,"Agribusiness, B.A.",1,2,18-24,Viet Nam,0,0.0,0.0,0.0,0.0,0,0,True,False,False,1,False,framed,0,0,0,0,1,0
285,1,265l99ai,2021-03-15 10:12:08.650239+00:00,1,73,Don't Control,,0,0,0,1,1,6,7igvdhlu,1,15,151,0,0,2.6,3.0,3.0,2.666666667,2.5,2.0,2.0,2.5,2.5,1.666666667,4.5,5,1,2,14,0,International Taxation and Law,23,2,18-24,Germany,0,0.0,0.0,0.0,0.0,1,1,False,False,False,1,False,framed,0,0,0,0,0,1
355,2,2fsj9qvt,2021-03-15 10:12:09.038959+00:00,2,86,,Cheat,0,1,1,0,1,6,7igvdhlu,1,15,151,0,1,2.228571429,2.0,2.5,2.333333333,1.5,3.5,1.6,2.0,1.5,2.333333333,3.0,1,2,1,0,16,"Agribusiness, B.A.",1,2,18-24,Viet Nam,1,0.16666666666666666,0.0,0.0,0.0,0,0,True,False,False,1,False,framed,0,0,0,0,1,0
286,1,265l99ai,2021-03-15 10:12:08.650239+00:00,1,84,Control,,1,0,1,0,1,7,7igvdhlu,1,15,151,1,0,2.6,3.0,3.0,2.666666667,2.5,2.0,2.0,2.5,2.5,1.666666667,4.5,5,1,2,11,0,International Taxation and Law,23,2,18-24,Germany,1,0.14285714285714285,1.0,0.16666666666666666,0.0,1,1,False,False,False,1,False,framed,1,0,1,0,0,1
356,2,2fsj9qvt,2021-03-15 10:12:09.038959+00:00,2,96,,Don't Cheat,0,0,0,1,1,7,7igvdhlu,1,15,151,0,1,2.228571429,2.0,2.5,2.333333333,1.5,3.5,1.6,2.0,1.5,2.333333333,3.0,1,2,1,0,14,"Agribusiness, B.A.",1,2,18-24,Viet Nam,1,0.14285714285714285,0.0,0.0,0.16666666666666666,0,0,True,False,False,1,False,framed,0,1,0,0,1,0
287,1,265l99ai,2021-03-15 10:12:08.650239+00:00,1,98,Don't Control,,0,0,0,1,1,8,7igvdhlu,1,15,151,1,0,2.6,3.0,3.0,2.666666667,2.5,2.0,2.0,2.5,2.5,1.666666667,4.5,5,1,2,14,0,International Taxation and Law,23,2,18-24,Germany,1,0.125,0.0,0.14285714285714285,0.14285714285714285,1,1,False,False,False,1,False,framed,0,0,0,0,0,1
357,2,2fsj9qvt,2021-03-15 10:12:09.038959+00:00,2,110,,Don't Cheat,0,0,0,1,1,8,7igvdhlu,1,15,151,0,1,2.228571429,2.0,2.5,2.333333333,1.5,3.5,1.6,2.0,1.5,2.333333333,3.0,1,2,1,0,14,"Agribusiness, B.A.",1,2,18-24,Viet Nam,1,0.125,1.0,0.14285714285714285,0.14285714285714285,0,0,True,False,False,1,False,framed,0,0,0,0,1,0
288,1,265l99ai,2021-03-15 10:12:08.650239+00:00,1,112,Don't Control,,0,0,0,1,1,9,7igvdhlu,1,15,151,1,0,2.6,3.0,3.0,2.666666667,2.5,2.0,2.0,2.5,2.5,1.666666667,4.5,5,1,2,14,0,International Taxation and Law,23,2,18-24,Germany,1,0.1111111111111111,0.0,0.125,0.125,1,1,False,False,False,1,False,framed,0,0,0,0,0,1
358,2,2fsj9qvt,2021-03-15 10:12:09.038959+00:00,2,124,,Don't Cheat,0,0,0,1,1,9,7igvdhlu,1,15,151,0,1,2.228571429,2.0,2.5,2.333333333,1.5,3.5,1.6,2.0,1.5,2.333333333,3.0,1,2,1,0,14,"Agribusiness, B.A.",1,2,18-24,Viet Nam,1,0.1111111111111111,0.0,0.125,0.125,0,0,True,False,False,1,False,framed,0,0,0,0,1,0
289,1,265l99ai,2021-03-15 10:12:08.650239+00:00,1,126,Don't Control,,0,0,0,1,1,10,7igvdhlu,1,15,151,1,0,2.6,3.0,3.0,2.666666667,2.5,2.0,2.0,2.5,2.5,1.666666667,4.5,5,1,2,14,0,International Taxation and Law,23,2,18-24,Germany,1,0.1,0.0,0.1111111111111111,0.1111111111111111,1,1,False,False,False,1,False,framed,0,0,0,0,0,1
359,2,2fsj9qvt,2021-03-15 10:12:09.038959+00:00,2,138,,Don't Cheat,0,0,0,1,1,10,7igvdhlu,1,15,151,0,1,2.228571429,2.0,2.5,2.333333333,1.5,3.5,1.6,2.0,1.5,2.333333333,3.0,1,2,1,0,14,"Agribusiness, B.A.",1,2,18-24,Viet Nam,1,0.1,0.0,0.1111111111111111,0.1111111111111111,0,0,True,False,False,1,False,framed,0,0,0,0,1,0
290,1,265l99ai,2021-03-15 10:12:08.650239+00:00,1,140,Don't Control,,0,0,0,1,1,11,7igvdhlu,1,15,151,1,0,2.6,3.0,3.0,2.666666667,2.5,2.0,2.0,2.5,2.5,1.666666667,4.5,5,1,2,14,0,International Taxation and Law,23,2,18-24,Germany,1,0.09090909090909091,0.0,0.1,0.1,1,1,False,False,False,1,False,framed,0,0,0,0,0,1
360,2,2fsj9qvt,2021-03-15 10:12:09.038959+00:00,2,152,,Don't Cheat,0,0,0,1,1,11,7igvdhlu,1,15,151,0,1,2.228571429,2.0,2.5,2.333333333,1.5,3.5,1.6,2.0,1.5,2.333333333,3.0,1,2,1,0,14,"Agribusiness, B.A.",1,2,18-24,Viet Nam,1,0.09090909090909091,0.0,0.1,0.1,0,0,True,False,False,1,False,framed,0,0,0,0,1,0
291,1,265l99ai,2021-03-15 10:12:08.650239+00:00,1,154,Don't Control,,0,0,0,1,1,12,7igvdhlu,1,15,151,1,0,2.6,3.0,3.0,2.666666667,2.5,2.0,2.0,2.5,2.5,1.666666667,4.5,5,1,2,14,0,International Taxation and Law,23,2,18-24,Germany,1,0.08333333333333333,0.0,0.09090909090909091,0.09090909090909091,1,1,False,False,False,1,False,framed,0,0,0,0,0,1
361,2,2fsj9qvt,2021-03-15 10:12:09.038959+00:00,2,166,,Don't Cheat,0,0,0,1,1,12,7igvdhlu,1,15,151,0,1,2.228571429,2.0,2.5,2.333333333,1.5,3.5,1.6,2.0,1.5,2.333333333,3.0,1,2,1,0,14,"Agribusiness, B.A.",1,2,18-24,Viet Nam,1,0.08333333333333333,0.0,0.09090909090909091,0.09090909090909091,0,0,True,False,False,1,False,framed,0,0,0,0,1,0
292,1,265l99ai,2021-03-15 10:12:08.650239+00:00,1,168,Don't Control,,0,0,0,1,1,13,7igvdhlu,1,15,151,1,0,2.6,3.0,3.0,2.666666667,2.5,2.0,2.0,2.5,2.5,1.666666667,4.5,5,1,2,14,0,International Taxation and Law,23,2,18-24,Germany,1,0.07692307692307693,0.0,0.08333333333333333,0.08333333333333333,1,1,False,False,False,1,False,framed,0,0,0,0,0,1
362,2,2fsj9qvt,2021-03-15 10:12:09.038959+00:00,2,180,,Don't Cheat,0,0,0,1,1,13,7igvdhlu,1,15,151,0,1,2.228571429,2.0,2.5,2.333333333,1.5,3.5,1.6,2.0,1.5,2.333333333,3.0,1,2,1,0,14,"Agribusiness, B.A.",1,2,18-24,Viet Nam,1,0.07692307692307693,0.0,0.08333333333333333,0.08333333333333333,0,0,True,False,False,1,False,framed,0,0,0,0,1,0
293,1,265l99ai,2021-03-15 10:12:08.650239+00:00,1,182,Don't Control,,0,0,0,1,1,14,7igvdhlu,1,15,151,1,0,2.6,3.0,3.0,2.666666667,2.5,2.0,2.0,2.5,2.5,1.666666667,4.5,5,1,2,14,0,International Taxation and Law,23,2,18-24,Germany,1,0.07142857142857142,0.0,0.07692307692307693,0.07692307692307693,1,1,False,False,False,1,False,framed,0,0,0,0,0,1
363,2,2fsj9qvt,2021-03-15 10:12:09.038959+00:00,2,194,,Don't Cheat,0,0,0,1,1,14,7igvdhlu,1,15,151,0,1,2.228571429,2.0,2.5,2.333333333,1.5,3.5,1.6,2.0,1.5,2.333333333,3.0,1,2,1,0,14,"Agribusiness, B.A.",1,2,18-24,Viet Nam,1,0.07142857142857142,0.0,0.07692307692307693,0.07692307692307693,0,0,True,False,False,1,False,framed,0,0,0,0,1,0
294,1,265l99ai,2021-03-15 10:12:08.650239+00:00,1,196,Don't Control,,0,0,0,1,1,15,7igvdhlu,1,15,151,1,0,2.6,3.0,3.0,2.666666667,2.5,2.0,2.0,2.5,2.5,1.666666667,4.5,5,1,2,14,0,International Taxation and Law,23,2,18-24,Germany,1,0.06666666666666667,0.0,0.07142857142857142,0.07142857142857142,1,1,False,False,False,1,False,framed,0,0,0,0,0,1
364,2,2fsj9qvt,2021-03-15 10:12:09.038959+00:00,2,208,,Don't Cheat,0,0,0,1,1,15,7igvdhlu,1,15,151,0,1,2.228571429,2.0,2.5,2.333333333,1.5,3.5,1.6,2.0,1.5,2.333333333,3.0,1,2,1,0,14,"Agribusiness, B.A.",1,2,18-24,Viet Nam,1,0.06666666666666667,0.0,0.07142857142857142,0.07142857142857142,0,0,True,False,False,1,False,framed,0,0,0,0,1,0
295,1,265l99ai,2021-03-15 10:12:08.650239+00:00,1,210,Don't Control,,0,0,0,1,1,16,7igvdhlu,1,15,151,1,0,2.6,3.0,3.0,2.666666667,2.5,2.0,2.0,2.5,2.5,1.666666667,4.5,5,1,2,14,0,International Taxation and Law,23,2,18-24,Germany,1,0.0625,0.0,0.06666666666666667,0.06666666666666667,1,1,False,False,False,1,False,framed,0,0,0,0,0,1
365,2,2fsj9qvt,2021-03-15 10:12:09.038959+00:00,2,222,,Don't Cheat,0,0,0,1,1,16,7igvdhlu,1,15,151,0,1,2.228571429,2.0,2.5,2.333333333,1.5,3.5,1.6,2.0,1.5,2.333333333,3.0,1,2,1,0,14,"Agribusiness, B.A.",1,2,18-24,Viet Nam,1,0.0625,0.0,0.06666666666666667,0.06666666666666667,0,0,True,False,False,1,False,framed,0,0,0,0,1,0
296,1,265l99ai,2021-03-15 10:12:08.650239+00:00,1,224,Don't Control,,0,0,0,1,1,17,7igvdhlu,1,15,151,1,0,2.6,3.0,3.0,2.666666667,2.5,2.0,2.0,2.5,2.5,1.666666667,4.5,5,1,2,14,0,International Taxation and Law,23,2,18-24,Germany,1,0.058823529411764705,0.0,0.0625,0.0625,1,1,False,False,False,1,False,framed,0,0,0,0,0,1
366,2,2fsj9qvt,2021-03-15 10:12:09.038959+00:00,2,236,,Don't Cheat,0,0,0,1,1,17,7igvdhlu,1,15,151,0,1,2.228571429,2.0,2.5,2.333333333,1.5,3.5,1.6,2.0,1.5,2.333333333,3.0,1,2,1,0,14,"Agribusiness, B.A.",1,2,18-24,Viet Nam,1,0.058823529411764705,0.0,0.0625,0.0625,0,0,True,False,False,1,False,framed,0,0,0,0,1,0
297,1,265l99ai,2021-03-15 10:12:08.650239+00:00,1,238,Don't Control,,0,0,0,1,1,18,7igvdhlu,1,15,151,1,0,2.6,3.0,3.0,2.666666667,2.5,2.0,2.0,2.5,2.5,1.666666667,4.5,5,1,2,14,0,International Taxation and Law,23,2,18-24,Germany,1,0.05555555555555555,0.0,0.058823529411764705,0.058823529411764705,1,1,False,False,False,1,False,framed,0,0,0,0,0,1
367,2,2fsj9qvt,2021-03-15 10:12:09.038959+00:00,2,250,,Don't Cheat,0,0,0,1,1,18,7igvdhlu,1,15,151,0,1,2.228571429,2.0,2.5,2.333333333,1.5,3.5,1.6,2.0,1.5,2.333333333,3.0,1,2,1,0,14,"Agribusiness, B.A.",1,2,18-24,Viet Nam,1,0.05555555555555555,0.0,0.058823529411764705,0.058823529411764705,0,0,True,False,False,1,False,framed,0,0,0,0,1,0
298,1,265l99ai,2021-03-15 10:12:08.650239+00:00,1,252,Don't Control,,0,0,0,1,1,19,7igvdhlu,1,15,151,1,0,2.6,3.0,3.0,2.666666667,2.5,2.0,2.0,2.5,2.5,1.666666667,4.5,5,1,2,14,0,International Taxation and Law,23,2,18-24,Germany,1,0.05263157894736842,0.0,0.05555555555555555,0.05555555555555555,1,1,False,False,False,1,False,framed,0,0,0,0,0,1
368,2,2fsj9qvt,2021-03-15 10:12:09.038959+00:00,2,264,,Don't Cheat,0,0,0,1,1,19,7igvdhlu,1,15,151,0,1,2.228571429,2.0,2.5,2.333333333,1.5,3.5,1.6,2.0,1.5,2.333333333,3.0,1,2,1,0,14,"Agribusiness, B.A.",1,2,18-24,Viet Nam,1,0.05263157894736842,0.0,0.05555555555555555,0.05555555555555555,0,0,True,False,False,1,False,framed,0,0,0,0,1,0
299,1,265l99ai,2021-03-15 10:12:08.650239+00:00,1,266,Don't Control,,0,0,0,1,1,20,7igvdhlu,1,15,151,1,0,2.6,3.0,3.0,2.666666667,2.5,2.0,2.0,2.5,2.5,1.666666667,4.5,5,1,2,14,0,International Taxation and Law,23,2,18-24,Germany,1,0.05,0.0,0.05263157894736842,0.05263157894736842,1,1,False,False,False,1,False,framed,0,0,0,0,0,1
369,2,2fsj9qvt,2021-03-15 10:12:09.038959+00:00,2,278,,Don't Cheat,0,0,0,1,1,20,7igvdhlu,1,15,151,0,1,2.228571429,2.0,2.5,2.333333333,1.5,3.5,1.6,2.0,1.5,2.333333333,3.0,1,2,1,0,14,"Agribusiness, B.A.",1,2,18-24,Viet Nam,1,0.05,0.0,0.05263157894736842,0.05263157894736842,0,0,True,False,False,1,False,framed,0,0,0,0,1,0
300,1,265l99ai,2021-03-15 10:12:08.650239+00:00,1,280,Don't Control,,0,0,0,1,1,21,7igvdhlu,1,15,151,1,0,2.6,3.0,3.0,2.666666667,2.5,2.0,2.0,2.5,2.5,1.666666667,4.5,5,1,2,14,0,International Taxation and Law,23,2,18-24,Germany,1,0.047619047619047616,0.0,0.05,0.05,1,1,False,False,False,1,False,framed,0,0,0,0,0,1
370,2,2fsj9qvt,2021-03-15 10:12:09.038959+00:00,2,292,,Don't Cheat,0,0,0,1,1,21,7igvdhlu,1,15,151,0,1,2.228571429,2.0,2.5,2.333333333,1.5,3.5,1.6,2.0,1.5,2.333333333,3.0,1,2,1,0,14,"Agribusiness, B.A.",1,2,18-24,Viet Nam,1,0.047619047619047616,0.0,0.05,0.05,0,0,True,False,False,1,False,framed,0,0,0,0,1,0
301,1,265l99ai,2021-03-15 10:12:08.650239+00:00,1,294,Don't Control,,0,0,0,1,1,22,7igvdhlu,1,15,151,1,0,2.6,3.0,3.0,2.666666667,2.5,2.0,2.0,2.5,2.5,1.666666667,4.5,5,1,2,14,0,International Taxation and Law,23,2,18-24,Germany,1,0.045454545454545456,0.0,0.047619047619047616,0.047619047619047616,1,1,False,False,False,1,False,framed,0,0,0,0,0,1
371,2,2fsj9qvt,2021-03-15 10:12:09.038959+00:00,2,306,,Don't Cheat,0,0,0,1,1,22,7igvdhlu,1,15,151,0,1,2.228571429,2.0,2.5,2.333333333,1.5,3.5,1.6,2.0,1.5,2.333333333,3.0,1,2,1,0,14,"Agribusiness, B.A.",1,2,18-24,Viet Nam,1,0.045454545454545456,0.0,0.047619047619047616,0.047619047619047616,0,0,True,False,False,1,False,framed,0,0,0,0,1,0
302,1,265l99ai,2021-03-15 10:12:08.650239+00:00,1,308,Don't Control,,0,0,0,1,1,23,7igvdhlu,1,15,151,1,0,2.6,3.0,3.0,2.666666667,2.5,2.0,2.0,2.5,2.5,1.666666667,4.5,5,1,2,14,0,International Taxation and Law,23,2,18-24,Germany,1,0.043478260869565216,0.0,0.045454545454545456,0.045454545454545456,1,1,False,False,False,1,False,framed,0,0,0,0,0,1
372,2,2fsj9qvt,2021-03-15 10:12:09.038959+00:00,2,320,,Don't Cheat,0,0,0,1,1,23,7igvdhlu,1,15,151,0,1,2.228571429,2.0,2.5,2.333333333,1.5,3.5,1.6,2.0,1.5,2.333333333,3.0,1,2,1,0,14,"Agribusiness, B.A.",1,2,18-24,Viet Nam,1,0.043478260869565216,0.0,0.045454545454545456,0.045454545454545456,0,0,True,False,False,1,False,framed,0,0,0,0,1,0
303,1,265l99ai,2021-03-15 10:12:08.650239+00:00,1,322,Don't Control,,0,0,0,1,1,24,7igvdhlu,1,15,151,1,0,2.6,3.0,3.0,2.666666667,2.5,2.0,2.0,2.5,2.5,1.666666667,4.5,5,1,2,14,0,International Taxation and Law,23,2,18-24,Germany,1,0.041666666666666664,0.0,0.043478260869565216,0.043478260869565216,1,1,False,False,False,1,False,framed,0,0,0,0,0,1
373,2,2fsj9qvt,2021-03-15 10:12:09.038959+00:00,2,334,,Don't Cheat,0,0,0,1,1,24,7igvdhlu,1,15,151,0,1,2.228571429,2.0,2.5,2.333333333,1.5,3.5,1.6,2.0,1.5,2.333333333,3.0,1,2,1,0,14,"Agribusiness, B.A.",1,2,18-24,Viet Nam,1,0.041666666666666664,0.0,0.043478260869565216,0.043478260869565216,0,0,True,False,False,1,False,framed,0,0,0,0,1,0
304,1,265l99ai,2021-03-15 10:12:08.650239+00:00,1,336,Don't Control,,0,0,0,1,1,25,7igvdhlu,1,15,151,1,0,2.6,3.0,3.0,2.666666667,2.5,2.0,2.0,2.5,2.5,1.666666667,4.5,5,1,2,14,0,International Taxation and Law,23,2,18-24,Germany,1,0.04,0.0,0.041666666666666664,0.041666666666666664,1,1,False,False,False,1,False,framed,0,0,0,0,0,1
374,2,2fsj9qvt,2021-03-15 10:12:09.038959+00:00,2,348,,Don't Cheat,0,0,0,1,1,25,7igvdhlu,1,15,151,0,1,2.228571429,2.0,2.5,2.333333333,1.5,3.5,1.6,2.0,1.5,2.333333333,3.0,1,2,1,0,14,"Agribusiness, B.A.",1,2,18-24,Viet Nam,1,0.04,0.0,0.041666666666666664,0.041666666666666664,0,0,True,False,False,1,False,framed,0,0,0,0,1,0
305,1,265l99ai,2021-03-15 10:12:08.650239+00:00,1,350,Don't Control,,0,0,0,1,1,26,7igvdhlu,1,15,151,1,0,2.6,3.0,3.0,2.666666667,2.5,2.0,2.0,2.5,2.5,1.666666667,4.5,5,1,2,14,0,International Taxation and Law,23,2,18-24,Germany,1,0.038461538461538464,0.0,0.04,0.04,1,1,False,False,False,1,False,framed,0,0,0,0,0,1
375,2,2fsj9qvt,2021-03-15 10:12:09.038959+00:00,2,362,,Don't Cheat,0,0,0,1,1,26,7igvdhlu,1,15,151,0,1,2.228571429,2.0,2.5,2.333333333,1.5,3.5,1.6,2.0,1.5,2.333333333,3.0,1,2,1,0,14,"Agribusiness, B.A.",1,2,18-24,Viet Nam,1,0.038461538461538464,0.0,0.04,0.04,0,0,True,False,False,1,False,framed,0,0,0,0,1,0
306,1,265l99ai,2021-03-15 10:12:08.650239+00:00,1,364,Don't Control,,0,0,0,1,1,27,7igvdhlu,1,15,151,1,0,2.6,3.0,3.0,2.666666667,2.5,2.0,2.0,2.5,2.5,1.666666667,4.5,5,1,2,14,0,International Taxation and Law,23,2,18-24,Germany,1,0.037037037037037035,0.0,0.038461538461538464,0.038461538461538464,1,1,False,False,False,1,False,framed,0,0,0,0,0,1
376,2,2fsj9qvt,2021-03-15 10:12:09.038959+00:00,2,376,,Don't Cheat,0,0,0,1,1,27,7igvdhlu,1,15,151,0,1,2.228571429,2.0,2.5,2.333333333,1.5,3.5,1.6,2.0,1.5,2.333333333,3.0,1,2,1,0,14,"Agribusiness, B.A.",1,2,18-24,Viet Nam,1,0.037037037037037035,0.0,0.038461538461538464,0.038461538461538464,0,0,True,False,False,1,False,framed,0,0,0,0,1,0
307,1,265l99ai,2021-03-15 10:12:08.650239+00:00,1,378,Don't Control,,0,0,0,1,1,28,7igvdhlu,1,15,151,1,0,2.6,3.0,3.0,2.666666667,2.5,2.0,2.0,2.5,2.5,1.666666667,4.5,5,1,2,14,0,International Taxation and Law,23,2,18-24,Germany,1,0.03571428571428571,0.0,0.037037037037037035,0.037037037037037035,1,1,False,False,False,1,False,framed,0,0,0,0,0,1
377,2,2fsj9qvt,2021-03-15 10:12:09.038959+00:00,2,390,,Don't Cheat,0,0,0,1,1,28,7igvdhlu,1,15,151,0,1,2.228571429,2.0,2.5,2.333333333,1.5,3.5,1.6,2.0,1.5,2.333333333,3.0,1,2,1,0,14,"Agribusiness, B.A.",1,2,18-24,Viet Nam,1,0.03571428571428571,0.0,0.037037037037037035,0.037037037037037035,0,0,True,False,False,1,False,framed,0,0,0,0,1,0
308,1,265l99ai,2021-03-15 10:12:08.650239+00:00,1,392,Don't Control,,0,0,0,1,1,29,7igvdhlu,1,15,151,1,0,2.6,3.0,3.0,2.666666667,2.5,2.0,2.0,2.5,2.5,1.666666667,4.5,5,1,2,14,0,International Taxation and Law,23,2,18-24,Germany,1,0.034482758620689655,0.0,0.03571428571428571,0.03571428571428571,1,1,False,False,False,1,False,framed,0,0,0,0,0,1
378,2,2fsj9qvt,2021-03-15 10:12:09.038959+00:00,2,404,,Don't Cheat,0,0,0,1,1,29,7igvdhlu,1,15,151,0,1,2.228571429,2.0,2.5,2.333333333,1.5,3.5,1.6,2.0,1.5,2.333333333,3.0,1,2,1,0,14,"Agribusiness, B.A.",1,2,18-24,Viet Nam,1,0.034482758620689655,0.0,0.03571428571428571,0.03571428571428571,0,0,True,False,False,1,False,framed,0,0,0,0,1,0
309,1,265l99ai,2021-03-15 10:12:08.650239+00:00,1,406,Don't Control,,0,0,0,1,1,30,7igvdhlu,1,15,151,1,0,2.6,3.0,3.0,2.666666667,2.5,2.0,2.0,2.5,2.5,1.666666667,4.5,5,1,2,14,0,International Taxation and Law,23,2,18-24,Germany,1,0.03333333333333333,0.0,0.034482758620689655,0.034482758620689655,1,1,False,False,False,1,False,framed,0,0,0,0,0,1
379,2,2fsj9qvt,2021-03-15 10:12:09.038959+00:00,2,418,,Don't Cheat,0,0,0,1,1,30,7igvdhlu,1,15,151,0,1,2.228571429,2.0,2.5,2.333333333,1.5,3.5,1.6,2.0,1.5,2.333333333,3.0,1,2,1,0,14,"Agribusiness, B.A.",1,2,18-24,Viet Nam,1,0.03333333333333333,0.0,0.034482758620689655,0.034482758620689655,0,0,True,False,False,1,False,framed,0,0,0,0,1,0
310,1,265l99ai,2021-03-15 10:12:08.650239+00:00,1,420,Don't Control,,0,0,0,1,1,31,7igvdhlu,1,15,151,1,0,2.6,3.0,3.0,2.666666667,2.5,2.0,2.0,2.5,2.5,1.666666667,4.5,5,1,2,14,0,International Taxation and Law,23,2,18-24,Germany,1,0.03225806451612903,0.0,0.03333333333333333,0.03333333333333333,1,1,False,False,False,1,False,framed,0,0,0,0,0,1
380,2,2fsj9qvt,2021-03-15 10:12:09.038959+00:00,2,432,,Don't Cheat,0,0,0,1,1,31,7igvdhlu,1,15,151,0,1,2.228571429,2.0,2.5,2.333333333,1.5,3.5,1.6,2.0,1.5,2.333333333,3.0,1,2,1,0,14,"Agribusiness, B.A.",1,2,18-24,Viet Nam,1,0.03225806451612903,0.0,0.03333333333333333,0.03333333333333333,0,0,True,False,False,1,False,framed,0,0,0,0,1,0
311,1,265l99ai,2021-03-15 10:12:08.650239+00:00,1,434,Don't Control,,0,0,0,1,1,32,7igvdhlu,1,15,151,1,0,2.6,3.0,3.0,2.666666667,2.5,2.0,2.0,2.5,2.5,1.666666667,4.5,5,1,2,14,0,International Taxation and Law,23,2,18-24,Germany,1,0.03125,0.0,0.03225806451612903,0.03225806451612903,1,1,False,False,False,1,False,framed,0,0,0,0,0,1
381,2,2fsj9qvt,2021-03-15 10:12:09.038959+00:00,2,446,,Don't Cheat,0,0,0,1,1,32,7igvdhlu,1,15,151,0,1,2.228571429,2.0,2.5,2.333333333,1.5,3.5,1.6,2.0,1.5,2.333333333,3.0,1,2,1,0,14,"Agribusiness, B.A.",1,2,18-24,Viet Nam,1,0.03125,0.0,0.03225806451612903,0.03225806451612903,0,0,True,False,False,1,False,framed,0,0,0,0,1,0
312,1,265l99ai,2021-03-15 10:12:08.650239+00:00,1,448,Don't Control,,0,0,0,1,1,33,7igvdhlu,1,15,151,1,0,2.6,3.0,3.0,2.666666667,2.5,2.0,2.0,2.5,2.5,1.666666667,4.5,5,1,2,14,0,International Taxation and Law,23,2,18-24,Germany,1,0.030303030303030304,0.0,0.03125,0.03125,1,1,False,False,False,1,False,framed,0,0,0,0,0,1
382,2,2fsj9qvt,2021-03-15 10:12:09.038959+00:00,2,460,,Don't Cheat,0,0,0,1,1,33,7igvdhlu,1,15,151,0,1,2.228571429,2.0,2.5,2.333333333,1.5,3.5,1.6,2.0,1.5,2.333333333,3.0,1,2,1,0,14,"Agribusiness, B.A.",1,2,18-24,Viet Nam,1,0.030303030303030304,0.0,0.03125,0.03125,0,0,True,False,False,1,False,framed,0,0,0,0,1,0
313,1,265l99ai,2021-03-15 10:12:08.650239+00:00,1,462,Don't Control,,0,0,0,1,1,34,7igvdhlu,1,15,151,1,0,2.6,3.0,3.0,2.666666667,2.5,2.0,2.0,2.5,2.5,1.666666667,4.5,5,1,2,14,0,International Taxation and Law,23,2,18-24,Germany,1,0.029411764705882353,0.0,0.030303030303030304,0.030303030303030304,1,1,False,False,False,1,False,framed,0,0,0,0,0,1
383,2,2fsj9qvt,2021-03-15 10:12:09.038959+00:00,2,474,,Don't Cheat,0,0,0,1,1,34,7igvdhlu,1,15,151,0,1,2.228571429,2.0,2.5,2.333333333,1.5,3.5,1.6,2.0,1.5,2.333333333,3.0,1,2,1,0,14,"Agribusiness, B.A.",1,2,18-24,Viet Nam,1,0.029411764705882353,0.0,0.030303030303030304,0.030303030303030304,0,0,True,False,False,1,False,framed,0,0,0,0,1,0
314,1,265l99ai,2021-03-15 10:12:08.650239+00:00,1,476,Don't Control,,0,0,0,1,1,35,7igvdhlu,1,15,151,1,0,2.6,3.0,3.0,2.666666667,2.5,2.0,2.0,2.5,2.5,1.666666667,4.5,5,1,2,14,0,International Taxation and Law,23,2,18-24,Germany,1,0.02857142857142857,0.0,0.029411764705882353,0.029411764705882353,1,1,False,False,False,1,False,framed,0,0,0,0,0,1
384,2,2fsj9qvt,2021-03-15 10:12:09.038959+00:00,2,488,,Don't Cheat,0,0,0,1,1,35,7igvdhlu,1,15,151,0,1,2.228571429,2.0,2.5,2.333333333,1.5,3.5,1.6,2.0,1.5,2.333333333,3.0,1,2,1,0,14,"Agribusiness, B.A.",1,2,18-24,Viet Nam,1,0.02857142857142857,0.0,0.029411764705882353,0.029411764705882353,0,0,True,False,False,1,False,framed,0,0,0,0,1,0
315,1,265l99ai,2021-03-15 10:12:08.650239+00:00,1,490,Don't Control,,0,0,0,1,1,36,7igvdhlu,1,15,151,1,0,2.6,3.0,3.0,2.666666667,2.5,2.0,2.0,2.5,2.5,1.666666667,4.5,5,1,2,14,0,International Taxation and Law,23,2,18-24,Germany,1,0.027777777777777776,0.0,0.02857142857142857,0.02857142857142857,1,1,False,False,False,1,False,framed,0,0,0,0,0,1
385,2,2fsj9qvt,2021-03-15 10:12:09.038959+00:00,2,502,,Don't Cheat,0,0,0,1,1,36,7igvdhlu,1,15,151,0,1,2.228571429,2.0,2.5,2.333333333,1.5,3.5,1.6,2.0,1.5,2.333333333,3.0,1,2,1,0,14,"Agribusiness, B.A.",1,2,18-24,Viet Nam,1,0.027777777777777776,0.0,0.02857142857142857,0.02857142857142857,0,0,True,False,False,1,False,framed,0,0,0,0,1,0
316,1,265l99ai,2021-03-15 10:12:08.650239+00:00,1,504,Don't Control,,0,0,0,1,1,37,7igvdhlu,1,15,151,1,0,2.6,3.0,3.0,2.666666667,2.5,2.0,2.0,2.5,2.5,1.666666667,4.5,5,1,2,14,0,International Taxation and Law,23,2,18-24,Germany,1,0.02702702702702703,0.0,0.027777777777777776,0.027777777777777776,1,1,False,False,False,1,False,framed,0,0,0,0,0,1
386,2,2fsj9qvt,2021-03-15 10:12:09.038959+00:00,2,516,,Don't Cheat,0,0,0,1,1,37,7igvdhlu,1,15,151,0,1,2.228571429,2.0,2.5,2.333333333,1.5,3.5,1.6,2.0,1.5,2.333333333,3.0,1,2,1,0,14,"Agribusiness, B.A.",1,2,18-24,Viet Nam,1,0.02702702702702703,0.0,0.027777777777777776,0.027777777777777776,0,0,True,False,False,1,False,framed,0,0,0,0,1,0
317,1,265l99ai,2021-03-15 10:12:08.650239+00:00,1,518,Don't Control,,0,0,0,1,1,38,7igvdhlu,1,15,151,1,0,2.6,3.0,3.0,2.666666667,2.5,2.0,2.0,2.5,2.5,1.666666667,4.5,5,1,2,14,0,International Taxation and Law,23,2,18-24,Germany,1,0.02631578947368421,0.0,0.02702702702702703,0.02702702702702703,1,1,False,False,False,1,False,framed,0,0,0,0,0,1
387,2,2fsj9qvt,2021-03-15 10:12:09.038959+00:00,2,530,,Don't Cheat,0,0,0,1,1,38,7igvdhlu,1,15,151,0,1,2.228571429,2.0,2.5,2.333333333,1.5,3.5,1.6,2.0,1.5,2.333333333,3.0,1,2,1,0,14,"Agribusiness, B.A.",1,2,18-24,Viet Nam,1,0.02631578947368421,0.0,0.02702702702702703,0.02702702702702703,0,0,True,False,False,1,False,framed,0,0,0,0,1,0
318,1,265l99ai,2021-03-15 10:12:08.650239+00:00,1,532,Don't Control,,0,0,0,1,1,39,7igvdhlu,1,15,151,1,0,2.6,3.0,3.0,2.666666667,2.5,2.0,2.0,2.5,2.5,1.666666667,4.5,5,1,2,14,0,International Taxation and Law,23,2,18-24,Germany,1,0.02564102564102564,0.0,0.02631578947368421,0.02631578947368421,1,1,False,False,False,1,False,framed,0,0,0,0,0,1
388,2,2fsj9qvt,2021-03-15 10:12:09.038959+00:00,2,544,,Don't Cheat,0,0,0,1,1,39,7igvdhlu,1,15,151,0,1,2.228571429,2.0,2.5,2.333333333,1.5,3.5,1.6,2.0,1.5,2.333333333,3.0,1,2,1,0,14,"Agribusiness, B.A.",1,2,18-24,Viet Nam,1,0.02564102564102564,0.0,0.02631578947368421,0.02631578947368421,0,0,True,False,False,1,False,framed,0,0,0,0,1,0
319,1,265l99ai,2021-03-15 10:12:08.650239+00:00,1,546,Don't Control,,0,0,0,1,1,40,7igvdhlu,1,15,151,1,0,2.6,3.0,3.0,2.666666667,2.5,2.0,2.0,2.5,2.5,1.666666667,4.5,5,1,2,14,0,International Taxation and Law,23,2,18-24,Germany,1,0.025,0.0,0.02564102564102564,0.02564102564102564,1,1,False,False,False,1,False,framed,0,0,0,0,0,1
389,2,2fsj9qvt,2021-03-15 10:12:09.038959+00:00,2,558,,Don't Cheat,0,0,0,1,1,40,7igvdhlu,1,15,151,0,1,2.228571429,2.0,2.5,2.333333333,1.5,3.5,1.6,2.0,1.5,2.333333333,3.0,1,2,1,0,14,"Agribusiness, B.A.",1,2,18-24,Viet Nam,1,0.025,0.0,0.02564102564102564,0.02564102564102564,0,0,True,False,False,1,False,framed,0,0,0,0,1,0
320,1,265l99ai,2021-03-15 10:12:08.650239+00:00,1,560,Don't Control,,0,0,0,1,1,41,7igvdhlu,1,15,151,1,0,2.6,3.0,3.0,2.666666667,2.5,2.0,2.0,2.5,2.5,1.666666667,4.5,5,1,2,14,0,International Taxation and Law,23,2,18-24,Germany,1,0.024390243902439025,0.0,0.025,0.025,1,1,False,False,False,1,False,framed,0,0,0,0,0,1
390,2,2fsj9qvt,2021-03-15 10:12:09.038959+00:00,2,572,,Don't Cheat,0,0,0,1,1,41,7igvdhlu,1,15,151,0,1,2.228571429,2.0,2.5,2.333333333,1.5,3.5,1.6,2.0,1.5,2.333333333,3.0,1,2,1,0,14,"Agribusiness, B.A.",1,2,18-24,Viet Nam,1,0.024390243902439025,0.0,0.025,0.025,0,0,True,False,False,1,False,framed,0,0,0,0,1,0
321,1,265l99ai,2021-03-15 10:12:08.650239+00:00,1,574,Don't Control,,0,0,0,1,1,42,7igvdhlu,1,15,151,1,0,2.6,3.0,3.0,2.666666667,2.5,2.0,2.0,2.5,2.5,1.666666667,4.5,5,1,2,14,0,International Taxation and Law,23,2,18-24,Germany,1,0.023809523809523808,0.0,0.024390243902439025,0.024390243902439025,1,1,False,False,False,1,False,framed,0,0,0,0,0,1
391,2,2fsj9qvt,2021-03-15 10:12:09.038959+00:00,2,586,,Don't Cheat,0,0,0,1,1,42,7igvdhlu,1,15,151,0,1,2.228571429,2.0,2.5,2.333333333,1.5,3.5,1.6,2.0,1.5,2.333333333,3.0,1,2,1,0,14,"Agribusiness, B.A.",1,2,18-24,Viet Nam,1,0.023809523809523808,0.0,0.024390243902439025,0.024390243902439025,0,0,True,False,False,1,False,framed,0,0,0,0,1,0
322,1,265l99ai,2021-03-15 10:12:08.650239+00:00,1,588,Don't Control,,0,0,0,1,1,43,7igvdhlu,1,15,151,1,0,2.6,3.0,3.0,2.666666667,2.5,2.0,2.0,2.5,2.5,1.666666667,4.5,5,1,2,14,0,International Taxation and Law,23,2,18-24,Germany,1,0.023255813953488372,0.0,0.023809523809523808,0.023809523809523808,1,1,False,False,False,1,False,framed,0,0,0,0,0,1
392,2,2fsj9qvt,2021-03-15 10:12:09.038959+00:00,2,600,,Don't Cheat,0,0,0,1,1,43,7igvdhlu,1,15,151,0,1,2.228571429,2.0,2.5,2.333333333,1.5,3.5,1.6,2.0,1.5,2.333333333,3.0,1,2,1,0,14,"Agribusiness, B.A.",1,2,18-24,Viet Nam,1,0.023255813953488372,0.0,0.023809523809523808,0.023809523809523808,0,0,True,False,False,1,False,framed,0,0,0,0,1,0
323,1,265l99ai,2021-03-15 10:12:08.650239+00:00,1,602,Don't Control,,0,0,0,1,1,44,7igvdhlu,1,15,151,1,0,2.6,3.0,3.0,2.666666667,2.5,2.0,2.0,2.5,2.5,1.666666667,4.5,5,1,2,14,0,International Taxation and Law,23,2,18-24,Germany,1,0.022727272727272728,0.0,0.023255813953488372,0.023255813953488372,1,1,False,False,False,1,False,framed,0,0,0,0,0,1
393,2,2fsj9qvt,2021-03-15 10:12:09.038959+00:00,2,614,,Don't Cheat,0,0,0,1,1,44,7igvdhlu,1,15,151,0,1,2.228571429,2.0,2.5,2.333333333,1.5,3.5,1.6,2.0,1.5,2.333333333,3.0,1,2,1,0,14,"Agribusiness, B.A.",1,2,18-24,Viet Nam,1,0.022727272727272728,0.0,0.023255813953488372,0.023255813953488372,0,0,True,False,False,1,False,framed,0,0,0,0,1,0
324,1,265l99ai,2021-03-15 10:12:08.650239+00:00,1,616,Don't Control,,0,0,0,1,1,45,7igvdhlu,1,15,151,1,0,2.6,3.0,3.0,2.666666667,2.5,2.0,2.0,2.5,2.5,1.666666667,4.5,5,1,2,14,0,International Taxation and Law,23,2,18-24,Germany,1,0.022222222222222223,0.0,0.022727272727272728,0.022727272727272728,1,1,False,False,False,1,False,framed,0,0,0,0,0,1
394,2,2fsj9qvt,2021-03-15 10:12:09.038959+00:00,2,628,,Don't Cheat,0,0,0,1,1,45,7igvdhlu,1,15,151,0,1,2.228571429,2.0,2.5,2.333333333,1.5,3.5,1.6,2.0,1.5,2.333333333,3.0,1,2,1,0,14,"Agribusiness, B.A.",1,2,18-24,Viet Nam,1,0.022222222222222223,0.0,0.022727272727272728,0.022727272727272728,0,0,True,False,False,1,False,framed,0,0,0,0,1,0
325,1,265l99ai,2021-03-15 10:12:08.650239+00:00,1,630,Don't Control,,0,0,0,1,1,46,7igvdhlu,1,15,151,1,0,2.6,3.0,3.0,2.666666667,2.5,2.0,2.0,2.5,2.5,1.666666667,4.5,5,1,2,14,0,International Taxation and Law,23,2,18-24,Germany,1,0.021739130434782608,0.0,0.022222222222222223,0.022222222222222223,1,1,False,False,False,1,False,framed,0,0,0,0,0,1
395,2,2fsj9qvt,2021-03-15 10:12:09.038959+00:00,2,642,,Don't Cheat,0,0,0,1,1,46,7igvdhlu,1,15,151,0,1,2.228571429,2.0,2.5,2.333333333,1.5,3.5,1.6,2.0,1.5,2.333333333,3.0,1,2,1,0,14,"Agribusiness, B.A.",1,2,18-24,Viet Nam,1,0.021739130434782608,0.0,0.022222222222222223,0.022222222222222223,0,0,True,False,False,1,False,framed,0,0,0,0,1,0
326,1,265l99ai,2021-03-15 10:12:08.650239+00:00,1,644,Don't Control,,0,0,0,1,1,47,7igvdhlu,1,15,151,1,0,2.6,3.0,3.0,2.666666667,2.5,2.0,2.0,2.5,2.5,1.666666667,4.5,5,1,2,14,0,International Taxation and Law,23,2,18-24,Germany,1,0.02127659574468085,0.0,0.021739130434782608,0.021739130434782608,1,1,False,False,False,1,False,framed,0,0,0,0,0,1
396,2,2fsj9qvt,2021-03-15 10:12:09.038959+00:00,2,656,,Don't Cheat,0,0,0,1,1,47,7igvdhlu,1,15,151,0,1,2.228571429,2.0,2.5,2.333333333,1.5,3.5,1.6,2.0,1.5,2.333333333,3.0,1,2,1,0,14,"Agribusiness, B.A.",1,2,18-24,Viet Nam,1,0.02127659574468085,0.0,0.021739130434782608,0.021739130434782608,0,0,True,False,False,1,False,framed,0,0,0,0,1,0
327,1,265l99ai,2021-03-15 10:12:08.650239+00:00,1,658,Don't Control,,0,0,0,1,1,48,7igvdhlu,1,15,151,1,0,2.6,3.0,3.0,2.666666667,2.5,2.0,2.0,2.5,2.5,1.666666667,4.5,5,1,2,14,0,International Taxation and Law,23,2,18-24,Germany,1,0.020833333333333332,0.0,0.02127659574468085,0.02127659574468085,1,1,False,False,False,1,False,framed,0,0,0,0,0,1
397,2,2fsj9qvt,2021-03-15 10:12:09.038959+00:00,2,670,,Don't Cheat,0,0,0,1,1,48,7igvdhlu,1,15,151,0,1,2.228571429,2.0,2.5,2.333333333,1.5,3.5,1.6,2.0,1.5,2.333333333,3.0,1,2,1,0,14,"Agribusiness, B.A.",1,2,18-24,Viet Nam,1,0.020833333333333332,0.0,0.02127659574468085,0.02127659574468085,0,0,True,False,False,1,False,framed,0,0,0,0,1,0
328,1,265l99ai,2021-03-15 10:12:08.650239+00:00,1,672,Don't Control,,0,0,0,1,1,49,7igvdhlu,1,15,151,1,0,2.6,3.0,3.0,2.666666667,2.5,2.0,2.0,2.5,2.5,1.666666667,4.5,5,1,2,14,0,International Taxation and Law,23,2,18-24,Germany,1,0.02040816326530612,0.0,0.020833333333333332,0.020833333333333332,1,1,False,False,False,1,False,framed,0,0,0,0,0,1
398,2,2fsj9qvt,2021-03-15 10:12:09.038959+00:00,2,684,,Don't Cheat,0,0,0,1,1,49,7igvdhlu,1,15,151,0,1,2.228571429,2.0,2.5,2.333333333,1.5,3.5,1.6,2.0,1.5,2.333333333,3.0,1,2,1,0,14,"Agribusiness, B.A.",1,2,18-24,Viet Nam,1,0.02040816326530612,0.0,0.020833333333333332,0.020833333333333332,0,0,True,False,False,1,False,framed,0,0,0,0,1,0
329,1,265l99ai,2021-03-15 10:12:08.650239+00:00,1,686,Don't Control,,0,0,0,1,1,50,7igvdhlu,1,15,151,1,0,2.6,3.0,3.0,2.666666667,2.5,2.0,2.0,2.5,2.5,1.666666667,4.5,5,1,2,14,0,International Taxation and Law,23,2,18-24,Germany,1,0.02,0.0,0.02040816326530612,0.02040816326530612,1,1,False,False,False,1,False,framed,0,0,0,0,0,1
399,2,2fsj9qvt,2021-03-15 10:12:09.038959+00:00,2,698,,Don't Cheat,0,0,0,1,1,50,7igvdhlu,1,15,151,0,1,2.228571429,2.0,2.5,2.333333333,1.5,3.5,1.6,2.0,1.5,2.333333333,3.0,1,2,1,0,14,"Agribusiness, B.A.",1,2,18-24,Viet Nam,1,0.02,0.0,0.02040816326530612,0.02040816326530612,0,0,True,False,False,1,False,framed,0,0,0,0,1,0
330,1,265l99ai,2021-03-15 10:12:08.650239+00:00,1,700,Don't Control,,0,0,0,1,1,51,7igvdhlu,1,15,151,1,0,2.6,3.0,3.0,2.666666667,2.5,2.0,2.0,2.5,2.5,1.666666667,4.5,5,1,2,14,0,International Taxation and Law,23,2,18-24,Germany,1,0.0196078431372549,0.0,0.02,0.02,1,1,False,False,False,1,False,framed,0,0,0,0,0,1
400,2,2fsj9qvt,2021-03-15 10:12:09.038959+00:00,2,712,,Don't Cheat,0,0,0,1,1,51,7igvdhlu,1,15,151,0,1,2.228571429,2.0,2.5,2.333333333,1.5,3.5,1.6,2.0,1.5,2.333333333,3.0,1,2,1,0,14,"Agribusiness, B.A.",1,2,18-24,Viet Nam,1,0.0196078431372549,0.0,0.02,0.02,0,0,True,False,False,1,False,framed,0,0,0,0,1,0
331,1,265l99ai,2021-03-15 10:12:08.650239+00:00,1,714,Don't Control,,0,0,0,1,1,52,7igvdhlu,1,15,151,1,0,2.6,3.0,3.0,2.666666667,2.5,2.0,2.0,2.5,2.5,1.666666667,4.5,5,1,2,14,0,International Taxation and Law,23,2,18-24,Germany,1,0.019230769230769232,0.0,0.0196078431372549,0.0196078431372549,1,1,False,False,False,1,False,framed,0,0,0,0,0,1
401,2,2fsj9qvt,2021-03-15 10:12:09.038959+00:00,2,726,,Don't Cheat,0,0,0,1,1,52,7igvdhlu,1,15,151,0,1,2.228571429,2.0,2.5,2.333333333,1.5,3.5,1.6,2.0,1.5,2.333333333,3.0,1,2,1,0,14,"Agribusiness, B.A.",1,2,18-24,Viet Nam,1,0.019230769230769232,0.0,0.0196078431372549,0.0196078431372549,0,0,True,False,False,1,False,framed,0,0,0,0,1,0
332,1,265l99ai,2021-03-15 10:12:08.650239+00:00,1,728,Don't Control,,0,0,0,1,1,53,7igvdhlu,1,15,151,1,0,2.6,3.0,3.0,2.666666667,2.5,2.0,2.0,2.5,2.5,1.666666667,4.5,5,1,2,14,0,International Taxation and Law,23,2,18-24,Germany,1,0.018867924528301886,0.0,0.019230769230769232,0.019230769230769232,1,1,False,False,False,1,False,framed,0,0,0,0,0,1
402,2,2fsj9qvt,2021-03-15 10:12:09.038959+00:00,2,740,,Don't Cheat,0,0,0,1,1,53,7igvdhlu,1,15,151,0,1,2.228571429,2.0,2.5,2.333333333,1.5,3.5,1.6,2.0,1.5,2.333333333,3.0,1,2,1,0,14,"Agribusiness, B.A.",1,2,18-24,Viet Nam,1,0.018867924528301886,0.0,0.019230769230769232,0.019230769230769232,0,0,True,False,False,1,False,framed,0,0,0,0,1,0
333,1,265l99ai,2021-03-15 10:12:08.650239+00:00,1,742,Don't Control,,0,0,0,1,1,54,7igvdhlu,1,15,151,1,0,2.6,3.0,3.0,2.666666667,2.5,2.0,2.0,2.5,2.5,1.666666667,4.5,5,1,2,14,0,International Taxation and Law,23,2,18-24,Germany,1,0.018518518518518517,0.0,0.018867924528301886,0.018867924528301886,1,1,False,False,False,1,False,framed,0,0,0,0,0,1
403,2,2fsj9qvt,2021-03-15 10:12:09.038959+00:00,2,754,,Don't Cheat,0,0,0,1,1,54,7igvdhlu,1,15,151,0,1,2.228571429,2.0,2.5,2.333333333,1.5,3.5,1.6,2.0,1.5,2.333333333,3.0,1,2,1,0,14,"Agribusiness, B.A.",1,2,18-24,Viet Nam,1,0.018518518518518517,0.0,0.018867924528301886,0.018867924528301886,0,0,True,False,False,1,False,framed,0,0,0,0,1,0
334,1,265l99ai,2021-03-15 10:12:08.650239+00:00,1,756,Don't Control,,0,0,0,1,1,55,7igvdhlu,1,15,151,1,0,2.6,3.0,3.0,2.666666667,2.5,2.0,2.0,2.5,2.5,1.666666667,4.5,5,1,2,14,0,International Taxation and Law,23,2,18-24,Germany,1,0.01818181818181818,0.0,0.018518518518518517,0.018518518518518517,1,1,False,False,False,1,False,framed,0,0,0,0,0,1
404,2,2fsj9qvt,2021-03-15 10:12:09.038959+00:00,2,768,,Don't Cheat,0,0,0,1,1,55,7igvdhlu,1,15,151,0,1,2.228571429,2.0,2.5,2.333333333,1.5,3.5,1.6,2.0,1.5,2.333333333,3.0,1,2,1,0,14,"Agribusiness, B.A.",1,2,18-24,Viet Nam,1,0.01818181818181818,0.0,0.018518518518518517,0.018518518518518517,0,0,True,False,False,1,False,framed,0,0,0,0,1,0
335,1,265l99ai,2021-03-15 10:12:08.650239+00:00,1,770,Don't Control,,0,0,0,1,1,56,7igvdhlu,1,15,151,1,0,2.6,3.0,3.0,2.666666667,2.5,2.0,2.0,2.5,2.5,1.666666667,4.5,5,1,2,14,0,International Taxation and Law,23,2,18-24,Germany,1,0.017857142857142856,0.0,0.01818181818181818,0.01818181818181818,1,1,False,False,False,1,False,framed,0,0,0,0,0,1
405,2,2fsj9qvt,2021-03-15 10:12:09.038959+00:00,2,782,,Don't Cheat,0,0,0,1,1,56,7igvdhlu,1,15,151,0,1,2.228571429,2.0,2.5,2.333333333,1.5,3.5,1.6,2.0,1.5,2.333333333,3.0,1,2,1,0,14,"Agribusiness, B.A.",1,2,18-24,Viet Nam,1,0.017857142857142856,0.0,0.01818181818181818,0.01818181818181818,0,0,True,False,False,1,False,framed,0,0,0,0,1,0
336,1,265l99ai,2021-03-15 10:12:08.650239+00:00,1,784,Don't Control,,0,0,0,1,1,57,7igvdhlu,1,15,151,1,0,2.6,3.0,3.0,2.666666667,2.5,2.0,2.0,2.5,2.5,1.666666667,4.5,5,1,2,14,0,International Taxation and Law,23,2,18-24,Germany,1,0.017543859649122806,0.0,0.017857142857142856,0.017857142857142856,1,1,False,False,False,1,False,framed,0,0,0,0,0,1
406,2,2fsj9qvt,2021-03-15 10:12:09.038959+00:00,2,796,,Don't Cheat,0,0,0,1,1,57,7igvdhlu,1,15,151,0,1,2.228571429,2.0,2.5,2.333333333,1.5,3.5,1.6,2.0,1.5,2.333333333,3.0,1,2,1,0,14,"Agribusiness, B.A.",1,2,18-24,Viet Nam,1,0.017543859649122806,0.0,0.017857142857142856,0.017857142857142856,0,0,True,False,False,1,False,framed,0,0,0,0,1,0
337,1,265l99ai,2021-03-15 10:12:08.650239+00:00,1,798,Don't Control,,0,0,0,1,1,58,7igvdhlu,1,15,151,1,0,2.6,3.0,3.0,2.666666667,2.5,2.0,2.0,2.5,2.5,1.666666667,4.5,5,1,2,14,0,International Taxation and Law,23,2,18-24,Germany,1,0.017241379310344827,0.0,0.017543859649122806,0.017543859649122806,1,1,False,False,False,1,False,framed,0,0,0,0,0,1
407,2,2fsj9qvt,2021-03-15 10:12:09.038959+00:00,2,810,,Don't Cheat,0,0,0,1,1,58,7igvdhlu,1,15,151,0,1,2.228571429,2.0,2.5,2.333333333,1.5,3.5,1.6,2.0,1.5,2.333333333,3.0,1,2,1,0,14,"Agribusiness, B.A.",1,2,18-24,Viet Nam,1,0.017241379310344827,0.0,0.017543859649122806,0.017543859649122806,0,0,True,False,False,1,False,framed,0,0,0,0,1,0
338,1,265l99ai,2021-03-15 10:12:08.650239+00:00,1,812,Don't Control,,0,0,0,1,1,59,7igvdhlu,1,15,151,1,0,2.6,3.0,3.0,2.666666667,2.5,2.0,2.0,2.5,2.5,1.666666667,4.5,5,1,2,14,0,International Taxation and Law,23,2,18-24,Germany,1,0.01694915254237288,0.0,0.017241379310344827,0.017241379310344827,1,1,False,False,False,1,False,framed,0,0,0,0,0,1
408,2,2fsj9qvt,2021-03-15 10:12:09.038959+00:00,2,824,,Don't Cheat,0,0,0,1,1,59,7igvdhlu,1,15,151,0,1,2.228571429,2.0,2.5,2.333333333,1.5,3.5,1.6,2.0,1.5,2.333333333,3.0,1,2,1,0,14,"Agribusiness, B.A.",1,2,18-24,Viet Nam,1,0.01694915254237288,0.0,0.017241379310344827,0.017241379310344827,0,0,True,False,False,1,False,framed,0,0,0,0,1,0
339,1,265l99ai,2021-03-15 10:12:08.650239+00:00,1,826,Don't Control,,0,0,0,1,1,60,7igvdhlu,1,15,151,1,0,2.6,3.0,3.0,2.666666667,2.5,2.0,2.0,2.5,2.5,1.666666667,4.5,5,1,2,14,0,International Taxation and Law,23,2,18-24,Germany,1,0.016666666666666666,0.0,0.01694915254237288,0.01694915254237288,1,1,False,False,False,1,False,framed,0,0,0,0,0,1
409,2,2fsj9qvt,2021-03-15 10:12:09.038959+00:00,2,838,,Don't Cheat,0,0,0,1,1,60,7igvdhlu,1,15,151,0,1,2.228571429,2.0,2.5,2.333333333,1.5,3.5,1.6,2.0,1.5,2.333333333,3.0,1,2,1,0,14,"Agribusiness, B.A.",1,2,18-24,Viet Nam,1,0.016666666666666666,0.0,0.01694915254237288,0.01694915254237288,0,0,True,False,False,1,False,framed,0,0,0,0,1,0
340,1,265l99ai,2021-03-15 10:12:08.650239+00:00,1,840,Don't Control,,0,0,0,1,1,61,7igvdhlu,1,15,151,1,0,2.6,3.0,3.0,2.666666667,2.5,2.0,2.0,2.5,2.5,1.666666667,4.5,5,1,2,14,0,International Taxation and Law,23,2,18-24,Germany,1,0.01639344262295082,0.0,0.016666666666666666,0.016666666666666666,1,1,False,False,False,1,False,framed,0,0,0,0,0,1
410,2,2fsj9qvt,2021-03-15 10:12:09.038959+00:00,2,852,,Don't Cheat,0,0,0,1,1,61,7igvdhlu,1,15,151,0,1,2.228571429,2.0,2.5,2.333333333,1.5,3.5,1.6,2.0,1.5,2.333333333,3.0,1,2,1,0,14,"Agribusiness, B.A.",1,2,18-24,Viet Nam,1,0.01639344262295082,0.0,0.016666666666666666,0.016666666666666666,0,0,True,False,False,1,False,framed,0,0,0,0,1,0
341,1,265l99ai,2021-03-15 10:12:08.650239+00:00,1,854,Don't Control,,0,0,0,1,1,62,7igvdhlu,1,15,151,1,0,2.6,3.0,3.0,2.666666667,2.5,2.0,2.0,2.5,2.5,1.666666667,4.5,5,1,2,14,0,International Taxation and Law,23,2,18-24,Germany,1,0.016129032258064516,0.0,0.01639344262295082,0.01639344262295082,1,1,False,False,False,1,False,framed,0,0,0,0,0,1
411,2,2fsj9qvt,2021-03-15 10:12:09.038959+00:00,2,866,,Don't Cheat,0,0,0,1,1,62,7igvdhlu,1,15,151,0,1,2.228571429,2.0,2.5,2.333333333,1.5,3.5,1.6,2.0,1.5,2.333333333,3.0,1,2,1,0,14,"Agribusiness, B.A.",1,2,18-24,Viet Nam,1,0.016129032258064516,0.0,0.01639344262295082,0.01639344262295082,0,0,True,False,False,1,False,framed,0,0,0,0,1,0
342,1,265l99ai,2021-03-15 10:12:08.650239+00:00,1,868,Don't Control,,0,0,0,1,1,63,7igvdhlu,1,15,151,1,0,2.6,3.0,3.0,2.666666667,2.5,2.0,2.0,2.5,2.5,1.666666667,4.5,5,1,2,14,0,International Taxation and Law,23,2,18-24,Germany,1,0.015873015873015872,0.0,0.016129032258064516,0.016129032258064516,1,1,False,False,False,1,False,framed,0,0,0,0,0,1
412,2,2fsj9qvt,2021-03-15 10:12:09.038959+00:00,2,880,,Don't Cheat,0,0,0,1,1,63,7igvdhlu,1,15,151,0,1,2.228571429,2.0,2.5,2.333333333,1.5,3.5,1.6,2.0,1.5,2.333333333,3.0,1,2,1,0,14,"Agribusiness, B.A.",1,2,18-24,Viet Nam,1,0.015873015873015872,0.0,0.016129032258064516,0.016129032258064516,0,0,True,False,False,1,False,framed,0,0,0,0,1,0
343,1,265l99ai,2021-03-15 10:12:08.650239+00:00,1,882,Don't Control,,0,0,0,1,1,64,7igvdhlu,1,15,151,1,0,2.6,3.0,3.0,2.666666667,2.5,2.0,2.0,2.5,2.5,1.666666667,4.5,5,1,2,14,0,International Taxation and Law,23,2,18-24,Germany,1,0.015625,0.0,0.015873015873015872,0.015873015873015872,1,1,False,False,False,1,False,framed,0,0,0,0,0,1
413,2,2fsj9qvt,2021-03-15 10:12:09.038959+00:00,2,894,,Don't Cheat,0,0,0,1,1,64,7igvdhlu,1,15,151,0,1,2.228571429,2.0,2.5,2.333333333,1.5,3.5,1.6,2.0,1.5,2.333333333,3.0,1,2,1,0,14,"Agribusiness, B.A.",1,2,18-24,Viet Nam,1,0.015625,0.0,0.015873015873015872,0.015873015873015872,0,0,True,False,False,1,False,framed,0,0,0,0,1,0
344,1,265l99ai,2021-03-15 10:12:08.650239+00:00,1,896,Don't Control,,0,0,0,1,1,65,7igvdhlu,1,15,151,1,0,2.6,3.0,3.0,2.666666667,2.5,2.0,2.0,2.5,2.5,1.666666667,4.5,5,1,2,14,0,International Taxation and Law,23,2,18-24,Germany,1,0.015384615384615385,0.0,0.015625,0.015625,1,1,False,False,False,1,False,framed,0,0,0,0,0,1
414,2,2fsj9qvt,2021-03-15 10:12:09.038959+00:00,2,908,,Don't Cheat,0,0,0,1,1,65,7igvdhlu,1,15,151,0,1,2.228571429,2.0,2.5,2.333333333,1.5,3.5,1.6,2.0,1.5,2.333333333,3.0,1,2,1,0,14,"Agribusiness, B.A.",1,2,18-24,Viet Nam,1,0.015384615384615385,0.0,0.015625,0.015625,0,0,True,False,False,1,False,framed,0,0,0,0,1,0
345,1,265l99ai,2021-03-15 10:12:08.650239+00:00,1,910,Don't Control,,0,0,0,1,1,66,7igvdhlu,1,15,151,1,0,2.6,3.0,3.0,2.666666667,2.5,2.0,2.0,2.5,2.5,1.666666667,4.5,5,1,2,14,0,International Taxation and Law,23,2,18-24,Germany,1,0.015151515151515152,0.0,0.015384615384615385,0.015384615384615385,1,1,False,False,False,1,False,framed,0,0,0,0,0,1
415,2,2fsj9qvt,2021-03-15 10:12:09.038959+00:00,2,922,,Don't Cheat,0,0,0,1,1,66,7igvdhlu,1,15,151,0,1,2.228571429,2.0,2.5,2.333333333,1.5,3.5,1.6,2.0,1.5,2.333333333,3.0,1,2,1,0,14,"Agribusiness, B.A.",1,2,18-24,Viet Nam,1,0.015151515151515152,0.0,0.015384615384615385,0.015384615384615385,0,0,True,False,False,1,False,framed,0,0,0,0,1,0
346,1,265l99ai,2021-03-15 10:12:08.650239+00:00,1,924,Don't Control,,0,0,0,1,1,67,7igvdhlu,1,15,151,1,0,2.6,3.0,3.0,2.666666667,2.5,2.0,2.0,2.5,2.5,1.666666667,4.5,5,1,2,14,0,International Taxation and Law,23,2,18-24,Germany,1,0.014925373134328358,0.0,0.015151515151515152,0.015151515151515152,1,1,False,False,False,1,False,framed,0,0,0,0,0,1
416,2,2fsj9qvt,2021-03-15 10:12:09.038959+00:00,2,936,,Don't Cheat,0,0,0,1,1,67,7igvdhlu,1,15,151,0,1,2.228571429,2.0,2.5,2.333333333,1.5,3.5,1.6,2.0,1.5,2.333333333,3.0,1,2,1,0,14,"Agribusiness, B.A.",1,2,18-24,Viet Nam,1,0.014925373134328358,0.0,0.015151515151515152,0.015151515151515152,0,0,True,False,False,1,False,framed,0,0,0,0,1,0
347,1,265l99ai,2021-03-15 10:12:08.650239+00:00,1,938,Don't Control,,0,0,0,1,1,68,7igvdhlu,1,15,151,1,0,2.6,3.0,3.0,2.666666667,2.5,2.0,2.0,2.5,2.5,1.666666667,4.5,5,1,2,14,0,International Taxation and Law,23,2,18-24,Germany,1,0.014705882352941176,0.0,0.014925373134328358,0.014925373134328358,1,1,False,False,False,1,False,framed,0,0,0,0,0,1
417,2,2fsj9qvt,2021-03-15 10:12:09.038959+00:00,2,950,,Don't Cheat,0,0,0,1,1,68,7igvdhlu,1,15,151,0,1,2.228571429,2.0,2.5,2.333333333,1.5,3.5,1.6,2.0,1.5,2.333333333,3.0,1,2,1,0,14,"Agribusiness, B.A.",1,2,18-24,Viet Nam,1,0.014705882352941176,0.0,0.014925373134328358,0.014925373134328358,0,0,True,False,False,1,False,framed,0,0,0,0,1,0
348,1,265l99ai,2021-03-15 10:12:08.650239+00:00,1,952,Don't Control,,0,0,0,1,1,69,7igvdhlu,1,15,151,1,0,2.6,3.0,3.0,2.666666667,2.5,2.0,2.0,2.5,2.5,1.666666667,4.5,5,1,2,14,0,International Taxation and Law,23,2,18-24,Germany,1,0.014492753623188406,0.0,0.014705882352941176,0.014705882352941176,1,1,False,False,False,1,False,framed,0,0,0,0,0,1
418,2,2fsj9qvt,2021-03-15 10:12:09.038959+00:00,2,964,,Don't Cheat,0,0,0,1,1,69,7igvdhlu,1,15,151,0,1,2.228571429,2.0,2.5,2.333333333,1.5,3.5,1.6,2.0,1.5,2.333333333,3.0,1,2,1,0,14,"Agribusiness, B.A.",1,2,18-24,Viet Nam,1,0.014492753623188406,0.0,0.014705882352941176,0.014705882352941176,0,0,True,False,False,1,False,framed,0,0,0,0,1,0
349,1,265l99ai,2021-03-15 10:12:08.650239+00:00,1,966,Don't Control,,0,0,0,1,1,70,7igvdhlu,1,15,151,1,0,2.6,3.0,3.0,2.666666667,2.5,2.0,2.0,2.5,2.5,1.666666667,4.5,5,1,2,14,0,International Taxation and Law,23,2,18-24,Germany,1,0.014285714285714285,0.0,0.014492753623188406,0.014492753623188406,1,1,False,False,False,1,False,framed,0,0,0,0,0,1
419,2,2fsj9qvt,2021-03-15 10:12:09.038959+00:00,2,978,,Don't Cheat,0,0,0,1,1,70,7igvdhlu,1,15,151,0,1,2.228571429,2.0,2.5,2.333333333,1.5,3.5,1.6,2.0,1.5,2.333333333,3.0,1,2,1,0,14,"Agribusiness, B.A.",1,2,18-24,Viet Nam,1,0.014285714285714285,0.0,0.014492753623188406,0.014492753623188406,0,0,True,False,False,1,False,framed,0,0,0,0,1,0
1260,3,7xjh9hwo,2021-03-15 10:12:09.096918+00:00,1,11,Control,,1,0,1,0,2,1,7igvdhlu,1,15,152,1,0,2.485714286,2.5,2.333333333,2.666666667,1.0,3.0,1.8,2.0,2.0,3.0,4.5,3,3,1,11,0,Anglistik/Amerikanistik,39,4,35-44,Germany,1,1.0,-1.0,0.0,0.0,1,0,True,False,False,1,False,framed,0,0,0,0,0,1
2170,4,e8jis7nf,2021-03-15 10:12:09.281927+00:00,2,10,,Don't Cheat,0,0,0,1,2,1,7igvdhlu,1,15,152,0,0,2.657142857,2.75,2.5,1.666666667,3.0,2.5,3.0,2.5,2.5,3.0,3.0,3,3,1,0,14,Religionswissenschaft,34,2,18-24,Germany,0,0.0,-1.0,0.0,0.0,1,0,True,False,False,1,False,framed,0,1,0,0,1,0
1261,3,7xjh9hwo,2021-03-15 10:12:09.096918+00:00,1,22,Control,,1,0,1,0,2,2,7igvdhlu,1,15,152,2,0,2.485714286,2.5,2.333333333,2.666666667,1.0,3.0,1.8,2.0,2.0,3.0,4.5,3,3,1,11,0,Anglistik/Amerikanistik,39,4,35-44,Germany,2,1.0,0.0,0.0,1.0,1,0,True,False,False,1,False,framed,0,0,0,0,0,1
2171,4,e8jis7nf,2021-03-15 10:12:09.281927+00:00,2,20,,Don't Cheat,0,0,0,1,2,2,7igvdhlu,1,15,152,0,0,2.657142857,2.75,2.5,1.666666667,3.0,2.5,3.0,2.5,2.5,3.0,3.0,3,3,1,0,14,Religionswissenschaft,34,2,18-24,Germany,0,0.0,1.0,1.0,0.0,1,0,True,False,False,1,False,framed,0,1,0,0,1,0
1262,3,7xjh9hwo,2021-03-15 10:12:09.096918+00:00,1,33,Control,,1,0,1,0,2,3,7igvdhlu,1,15,152,3,0,2.485714286,2.5,2.333333333,2.666666667,1.0,3.0,1.8,2.0,2.0,3.0,4.5,3,3,1,11,0,Anglistik/Amerikanistik,39,4,35-44,Germany,3,1.0,0.0,0.0,1.0,1,0,True,False,False,1,False,framed,0,0,0,0,0,1
2172,4,e8jis7nf,2021-03-15 10:12:09.281927+00:00,2,30,,Don't Cheat,0,0,0,1,2,3,7igvdhlu,1,15,152,0,0,2.657142857,2.75,2.5,1.666666667,3.0,2.5,3.0,2.5,2.5,3.0,3.0,3,3,1,0,14,Religionswissenschaft,34,2,18-24,Germany,0,0.0,1.0,1.0,0.0,1,0,True,False,False,1,False,framed,0,1,0,0,1,0
1263,3,7xjh9hwo,2021-03-15 10:12:09.096918+00:00,1,44,Control,,1,0,1,0,2,4,7igvdhlu,1,15,152,4,0,2.485714286,2.5,2.333333333,2.666666667,1.0,3.0,1.8,2.0,2.0,3.0,4.5,3,3,1,11,0,Anglistik/Amerikanistik,39,4,35-44,Germany,4,1.0,0.0,0.0,1.0,1,0,True,False,False,1,False,framed,0,0,0,0,0,1
2173,4,e8jis7nf,2021-03-15 10:12:09.281927+00:00,2,40,,Don't Cheat,0,0,0,1,2,4,7igvdhlu,1,15,152,0,0,2.657142857,2.75,2.5,1.666666667,3.0,2.5,3.0,2.5,2.5,3.0,3.0,3,3,1,0,14,Religionswissenschaft,34,2,18-24,Germany,0,0.0,1.0,1.0,0.0,1,0,True,False,False,1,False,framed,0,1,0,0,1,0
1264,3,7xjh9hwo,2021-03-15 10:12:09.096918+00:00,1,58,Don't Control,,0,0,0,1,2,5,7igvdhlu,1,15,152,4,0,2.485714286,2.5,2.333333333,2.666666667,1.0,3.0,1.8,2.0,2.0,3.0,4.5,3,3,1,14,0,Anglistik/Amerikanistik,39,4,35-44,Germany,4,0.8,0.0,0.0,1.0,1,0,True,False,False,1,False,framed,0,0,0,0,0,1
2174,4,e8jis7nf,2021-03-15 10:12:09.281927+00:00,2,54,,Don't Cheat,0,0,0,1,2,5,7igvdhlu,1,15,152,0,0,2.657142857,2.75,2.5,1.666666667,3.0,2.5,3.0,2.5,2.5,3.0,3.0,3,3,1,0,14,Religionswissenschaft,34,2,18-24,Germany,0,0.0,1.0,1.0,0.0,1,0,True,False,False,1,False,framed,0,0,0,0,1,0
1265,3,7xjh9hwo,2021-03-15 10:12:09.096918+00:00,1,61,Don't Control,,0,0,0,1,2,6,7igvdhlu,1,15,152,4,0,2.485714286,2.5,2.333333333,2.666666667,1.0,3.0,1.8,2.0,2.0,3.0,4.5,3,3,1,14,0,Anglistik/Amerikanistik,39,4,35-44,Germany,4,0.6666666666666666,0.0,0.0,0.8,1,0,True,False,False,1,False,framed,0,0,0,0,0,1
2175,4,e8jis7nf,2021-03-15 10:12:09.281927+00:00,2,70,,Cheat,0,1,1,0,2,6,7igvdhlu,1,15,152,0,1,2.657142857,2.75,2.5,1.666666667,3.0,2.5,3.0,2.5,2.5,3.0,3.0,3,3,1,0,16,Religionswissenschaft,34,2,18-24,Germany,1,0.16666666666666666,0.0,0.8,0.0,1,0,True,False,False,1,False,framed,0,0,0,0,1,0
1266,3,7xjh9hwo,2021-03-15 10:12:09.096918+00:00,1,72,Control,,1,0,1,0,2,7,7igvdhlu,1,15,152,5,0,2.485714286,2.5,2.333333333,2.666666667,1.0,3.0,1.8,2.0,2.0,3.0,4.5,3,3,1,11,0,Anglistik/Amerikanistik,39,4,35-44,Germany,5,0.7142857142857143,1.0,0.16666666666666666,0.6666666666666666,1,0,True,False,False,1,False,framed,1,0,1,0,0,1
2176,4,e8jis7nf,2021-03-15 10:12:09.281927+00:00,2,80,,Don't Cheat,0,0,0,1,2,7,7igvdhlu,1,15,152,0,1,2.657142857,2.75,2.5,1.666666667,3.0,2.5,3.0,2.5,2.5,3.0,3.0,3,3,1,0,14,Religionswissenschaft,34,2,18-24,Germany,1,0.14285714285714285,0.0,0.6666666666666666,0.16666666666666666,1,0,True,False,False,1,False,framed,0,1,0,0,1,0
1267,3,7xjh9hwo,2021-03-15 10:12:09.096918+00:00,1,83,Control,,1,0,1,0,2,8,7igvdhlu,1,15,152,6,0,2.485714286,2.5,2.333333333,2.666666667,1.0,3.0,1.8,2.0,2.0,3.0,4.5,3,3,1,11,0,Anglistik/Amerikanistik,39,4,35-44,Germany,6,0.75,0.0,0.14285714285714285,0.7142857142857143,1,0,True,False,False,1,False,framed,0,0,0,0,0,1
2177,4,e8jis7nf,2021-03-15 10:12:09.281927+00:00,2,90,,Don't Cheat,0,0,0,1,2,8,7igvdhlu,1,15,152,0,1,2.657142857,2.75,2.5,1.666666667,3.0,2.5,3.0,2.5,2.5,3.0,3.0,3,3,1,0,14,Religionswissenschaft,34,2,18-24,Germany,1,0.125,1.0,0.7142857142857143,0.14285714285714285,1,0,True,False,False,1,False,framed,0,1,0,0,1,0
1268,3,7xjh9hwo,2021-03-15 10:12:09.096918+00:00,1,94,Control,,1,0,1,0,2,9,7igvdhlu,1,15,152,7,0,2.485714286,2.5,2.333333333,2.666666667,1.0,3.0,1.8,2.0,2.0,3.0,4.5,3,3,1,11,0,Anglistik/Amerikanistik,39,4,35-44,Germany,7,0.7777777777777778,0.0,0.125,0.75,1,0,True,False,False,1,False,framed,0,0,0,0,0,1
2178,4,e8jis7nf,2021-03-15 10:12:09.281927+00:00,2,100,,Don't Cheat,0,0,0,1,2,9,7igvdhlu,1,15,152,0,1,2.657142857,2.75,2.5,1.666666667,3.0,2.5,3.0,2.5,2.5,3.0,3.0,3,3,1,0,14,Religionswissenschaft,34,2,18-24,Germany,1,0.1111111111111111,1.0,0.75,0.125,1,0,True,False,False,1,False,framed,0,1,0,0,1,0
1269,3,7xjh9hwo,2021-03-15 10:12:09.096918+00:00,1,105,Control,,1,0,1,0,2,10,7igvdhlu,1,15,152,8,0,2.485714286,2.5,2.333333333,2.666666667,1.0,3.0,1.8,2.0,2.0,3.0,4.5,3,3,1,11,0,Anglistik/Amerikanistik,39,4,35-44,Germany,8,0.8,0.0,0.1111111111111111,0.7777777777777778,1,0,True,False,False,1,False,framed,0,0,0,0,0,1
2179,4,e8jis7nf,2021-03-15 10:12:09.281927+00:00,2,110,,Don't Cheat,0,0,0,1,2,10,7igvdhlu,1,15,152,0,1,2.657142857,2.75,2.5,1.666666667,3.0,2.5,3.0,2.5,2.5,3.0,3.0,3,3,1,0,14,Religionswissenschaft,34,2,18-24,Germany,1,0.1,1.0,0.7777777777777778,0.1111111111111111,1,0,True,False,False,1,False,framed,0,1,0,0,1,0
1270,3,7xjh9hwo,2021-03-15 10:12:09.096918+00:00,1,116,Control,,1,0,1,0,2,11,7igvdhlu,1,15,152,9,0,2.485714286,2.5,2.333333333,2.666666667,1.0,3.0,1.8,2.0,2.0,3.0,4.5,3,3,1,11,0,Anglistik/Amerikanistik,39,4,35-44,Germany,9,0.8181818181818182,0.0,0.1,0.8,1,0,True,False,False,1,False,framed,0,0,0,0,0,1
2180,4,e8jis7nf,2021-03-15 10:12:09.281927+00:00,2,120,,Don't Cheat,0,0,0,1,2,11,7igvdhlu,1,15,152,0,1,2.657142857,2.75,2.5,1.666666667,3.0,2.5,3.0,2.5,2.5,3.0,3.0,3,3,1,0,14,Religionswissenschaft,34,2,18-24,Germany,1,0.09090909090909091,1.0,0.8,0.1,1,0,True,False,False,1,False,framed,0,1,0,0,1,0
1271,3,7xjh9hwo,2021-03-15 10:12:09.096918+00:00,1,127,Control,,1,0,1,0,2,12,7igvdhlu,1,15,152,10,0,2.485714286,2.5,2.333333333,2.666666667,1.0,3.0,1.8,2.0,2.0,3.0,4.5,3,3,1,11,0,Anglistik/Amerikanistik,39,4,35-44,Germany,10,0.8333333333333334,0.0,0.09090909090909091,0.8181818181818182,1,0,True,False,False,1,False,framed,0,0,0,0,0,1
2181,4,e8jis7nf,2021-03-15 10:12:09.281927+00:00,2,130,,Don't Cheat,0,0,0,1,2,12,7igvdhlu,1,15,152,0,1,2.657142857,2.75,2.5,1.666666667,3.0,2.5,3.0,2.5,2.5,3.0,3.0,3,3,1,0,14,Religionswissenschaft,34,2,18-24,Germany,1,0.08333333333333333,1.0,0.8181818181818182,0.09090909090909091,1,0,True,False,False,1,False,framed,0,1,0,0,1,0
1272,3,7xjh9hwo,2021-03-15 10:12:09.096918+00:00,1,138,Control,,1,0,1,0,2,13,7igvdhlu,1,15,152,11,0,2.485714286,2.5,2.333333333,2.666666667,1.0,3.0,1.8,2.0,2.0,3.0,4.5,3,3,1,11,0,Anglistik/Amerikanistik,39,4,35-44,Germany,11,0.8461538461538461,0.0,0.08333333333333333,0.8333333333333334,1,0,True,False,False,1,False,framed,0,0,0,0,0,1
2182,4,e8jis7nf,2021-03-15 10:12:09.281927+00:00,2,140,,Don't Cheat,0,0,0,1,2,13,7igvdhlu,1,15,152,0,1,2.657142857,2.75,2.5,1.666666667,3.0,2.5,3.0,2.5,2.5,3.0,3.0,3,3,1,0,14,Religionswissenschaft,34,2,18-24,Germany,1,0.07692307692307693,1.0,0.8333333333333334,0.08333333333333333,1,0,True,False,False,1,False,framed,0,1,0,0,1,0
1273,3,7xjh9hwo,2021-03-15 10:12:09.096918+00:00,1,149,Control,,1,0,1,0,2,14,7igvdhlu,1,15,152,12,0,2.485714286,2.5,2.333333333,2.666666667,1.0,3.0,1.8,2.0,2.0,3.0,4.5,3,3,1,11,0,Anglistik/Amerikanistik,39,4,35-44,Germany,12,0.8571428571428571,0.0,0.07692307692307693,0.8461538461538461,1,0,True,False,False,1,False,framed,0,0,0,0,0,1
2183,4,e8jis7nf,2021-03-15 10:12:09.281927+00:00,2,150,,Don't Cheat,0,0,0,1,2,14,7igvdhlu,1,15,152,0,1,2.657142857,2.75,2.5,1.666666667,3.0,2.5,3.0,2.5,2.5,3.0,3.0,3,3,1,0,14,Religionswissenschaft,34,2,18-24,Germany,1,0.07142857142857142,1.0,0.8461538461538461,0.07692307692307693,1,0,True,False,False,1,False,framed,0,1,0,0,1,0
1274,3,7xjh9hwo,2021-03-15 10:12:09.096918+00:00,1,160,Control,,1,0,1,0,2,15,7igvdhlu,1,15,152,13,0,2.485714286,2.5,2.333333333,2.666666667,1.0,3.0,1.8,2.0,2.0,3.0,4.5,3,3,1,11,0,Anglistik/Amerikanistik,39,4,35-44,Germany,13,0.8666666666666667,0.0,0.07142857142857142,0.8571428571428571,1,0,True,False,False,1,False,framed,0,0,0,0,0,1
2184,4,e8jis7nf,2021-03-15 10:12:09.281927+00:00,2,160,,Don't Cheat,0,0,0,1,2,15,7igvdhlu,1,15,152,0,1,2.657142857,2.75,2.5,1.666666667,3.0,2.5,3.0,2.5,2.5,3.0,3.0,3,3,1,0,14,Religionswissenschaft,34,2,18-24,Germany,1,0.06666666666666667,1.0,0.8571428571428571,0.07142857142857142,1,0,True,False,False,1,False,framed,0,1,0,0,1,0
1275,3,7xjh9hwo,2021-03-15 10:12:09.096918+00:00,1,171,Control,,1,0,1,0,2,16,7igvdhlu,1,15,152,14,0,2.485714286,2.5,2.333333333,2.666666667,1.0,3.0,1.8,2.0,2.0,3.0,4.5,3,3,1,11,0,Anglistik/Amerikanistik,39,4,35-44,Germany,14,0.875,0.0,0.06666666666666667,0.8666666666666667,1,0,True,False,False,1,False,framed,0,0,0,0,0,1
2185,4,e8jis7nf,2021-03-15 10:12:09.281927+00:00,2,170,,Don't Cheat,0,0,0,1,2,16,7igvdhlu,1,15,152,0,1,2.657142857,2.75,2.5,1.666666667,3.0,2.5,3.0,2.5,2.5,3.0,3.0,3,3,1,0,14,Religionswissenschaft,34,2,18-24,Germany,1,0.0625,1.0,0.8666666666666667,0.06666666666666667,1,0,True,False,False,1,False,framed,0,1,0,0,1,0
1276,3,7xjh9hwo,2021-03-15 10:12:09.096918+00:00,1,182,Control,,1,0,1,0,2,17,7igvdhlu,1,15,152,15,0,2.485714286,2.5,2.333333333,2.666666667,1.0,3.0,1.8,2.0,2.0,3.0,4.5,3,3,1,11,0,Anglistik/Amerikanistik,39,4,35-44,Germany,15,0.8823529411764706,0.0,0.0625,0.875,1,0,True,False,False,1,False,framed,0,0,0,0,0,1
2186,4,e8jis7nf,2021-03-15 10:12:09.281927+00:00,2,180,,Don't Cheat,0,0,0,1,2,17,7igvdhlu,1,15,152,0,1,2.657142857,2.75,2.5,1.666666667,3.0,2.5,3.0,2.5,2.5,3.0,3.0,3,3,1,0,14,Religionswissenschaft,34,2,18-24,Germany,1,0.058823529411764705,1.0,0.875,0.0625,1,0,True,False,False,1,False,framed,0,1,0,0,1,0
1277,3,7xjh9hwo,2021-03-15 10:12:09.096918+00:00,1,193,Control,,1,0,1,0,2,18,7igvdhlu,1,15,152,16,0,2.485714286,2.5,2.333333333,2.666666667,1.0,3.0,1.8,2.0,2.0,3.0,4.5,3,3,1,11,0,Anglistik/Amerikanistik,39,4,35-44,Germany,16,0.8888888888888888,0.0,0.058823529411764705,0.8823529411764706,1,0,True,False,False,1,False,framed,0,0,0,0,0,1
2187,4,e8jis7nf,2021-03-15 10:12:09.281927+00:00,2,190,,Don't Cheat,0,0,0,1,2,18,7igvdhlu,1,15,152,0,1,2.657142857,2.75,2.5,1.666666667,3.0,2.5,3.0,2.5,2.5,3.0,3.0,3,3,1,0,14,Religionswissenschaft,34,2,18-24,Germany,1,0.05555555555555555,1.0,0.8823529411764706,0.058823529411764705,1,0,True,False,False,1,False,framed,0,1,0,0,1,0
1278,3,7xjh9hwo,2021-03-15 10:12:09.096918+00:00,1,204,Control,,1,0,1,0,2,19,7igvdhlu,1,15,152,17,0,2.485714286,2.5,2.333333333,2.666666667,1.0,3.0,1.8,2.0,2.0,3.0,4.5,3,3,1,11,0,Anglistik/Amerikanistik,39,4,35-44,Germany,17,0.8947368421052632,0.0,0.05555555555555555,0.8888888888888888,1,0,True,False,False,1,False,framed,0,0,0,0,0,1
2188,4,e8jis7nf,2021-03-15 10:12:09.281927+00:00,2,200,,Don't Cheat,0,0,0,1,2,19,7igvdhlu,1,15,152,0,1,2.657142857,2.75,2.5,1.666666667,3.0,2.5,3.0,2.5,2.5,3.0,3.0,3,3,1,0,14,Religionswissenschaft,34,2,18-24,Germany,1,0.05263157894736842,1.0,0.8888888888888888,0.05555555555555555,1,0,True,False,False,1,False,framed,0,1,0,0,1,0
1279,3,7xjh9hwo,2021-03-15 10:12:09.096918+00:00,1,215,Control,,1,0,1,0,2,20,7igvdhlu,1,15,152,18,0,2.485714286,2.5,2.333333333,2.666666667,1.0,3.0,1.8,2.0,2.0,3.0,4.5,3,3,1,11,0,Anglistik/Amerikanistik,39,4,35-44,Germany,18,0.9,0.0,0.05263157894736842,0.8947368421052632,1,0,True,False,False,1,False,framed,0,0,0,0,0,1
2189,4,e8jis7nf,2021-03-15 10:12:09.281927+00:00,2,210,,Don't Cheat,0,0,0,1,2,20,7igvdhlu,1,15,152,0,1,2.657142857,2.75,2.5,1.666666667,3.0,2.5,3.0,2.5,2.5,3.0,3.0,3,3,1,0,14,Religionswissenschaft,34,2,18-24,Germany,1,0.05,1.0,0.8947368421052632,0.05263157894736842,1,0,True,False,False,1,False,framed,0,1,0,0,1,0
1280,3,7xjh9hwo,2021-03-15 10:12:09.096918+00:00,1,226,Control,,1,0,1,0,2,21,7igvdhlu,1,15,152,19,0,2.485714286,2.5,2.333333333,2.666666667,1.0,3.0,1.8,2.0,2.0,3.0,4.5,3,3,1,11,0,Anglistik/Amerikanistik,39,4,35-44,Germany,19,0.9047619047619048,0.0,0.05,0.9,1,0,True,False,False,1,False,framed,0,0,0,0,0,1
2190,4,e8jis7nf,2021-03-15 10:12:09.281927+00:00,2,220,,Don't Cheat,0,0,0,1,2,21,7igvdhlu,1,15,152,0,1,2.657142857,2.75,2.5,1.666666667,3.0,2.5,3.0,2.5,2.5,3.0,3.0,3,3,1,0,14,Religionswissenschaft,34,2,18-24,Germany,1,0.047619047619047616,1.0,0.9,0.05,1,0,True,False,False,1,False,framed,0,1,0,0,1,0
1281,3,7xjh9hwo,2021-03-15 10:12:09.096918+00:00,1,237,Control,,1,0,1,0,2,22,7igvdhlu,1,15,152,20,0,2.485714286,2.5,2.333333333,2.666666667,1.0,3.0,1.8,2.0,2.0,3.0,4.5,3,3,1,11,0,Anglistik/Amerikanistik,39,4,35-44,Germany,20,0.9090909090909091,0.0,0.047619047619047616,0.9047619047619048,1,0,True,False,False,1,False,framed,0,0,0,0,0,1
2191,4,e8jis7nf,2021-03-15 10:12:09.281927+00:00,2,230,,Don't Cheat,0,0,0,1,2,22,7igvdhlu,1,15,152,0,1,2.657142857,2.75,2.5,1.666666667,3.0,2.5,3.0,2.5,2.5,3.0,3.0,3,3,1,0,14,Religionswissenschaft,34,2,18-24,Germany,1,0.045454545454545456,1.0,0.9047619047619048,0.047619047619047616,1,0,True,False,False,1,False,framed,0,1,0,0,1,0
1282,3,7xjh9hwo,2021-03-15 10:12:09.096918+00:00,1,248,Control,,1,0,1,0,2,23,7igvdhlu,1,15,152,21,0,2.485714286,2.5,2.333333333,2.666666667,1.0,3.0,1.8,2.0,2.0,3.0,4.5,3,3,1,11,0,Anglistik/Amerikanistik,39,4,35-44,Germany,21,0.9130434782608695,0.0,0.045454545454545456,0.9090909090909091,1,0,True,False,False,1,False,framed,0,0,0,0,0,1
2192,4,e8jis7nf,2021-03-15 10:12:09.281927+00:00,2,240,,Don't Cheat,0,0,0,1,2,23,7igvdhlu,1,15,152,0,1,2.657142857,2.75,2.5,1.666666667,3.0,2.5,3.0,2.5,2.5,3.0,3.0,3,3,1,0,14,Religionswissenschaft,34,2,18-24,Germany,1,0.043478260869565216,1.0,0.9090909090909091,0.045454545454545456,1,0,True,False,False,1,False,framed,0,1,0,0,1,0
1283,3,7xjh9hwo,2021-03-15 10:12:09.096918+00:00,1,259,Control,,1,0,1,0,2,24,7igvdhlu,1,15,152,22,0,2.485714286,2.5,2.333333333,2.666666667,1.0,3.0,1.8,2.0,2.0,3.0,4.5,3,3,1,11,0,Anglistik/Amerikanistik,39,4,35-44,Germany,22,0.9166666666666666,0.0,0.043478260869565216,0.9130434782608695,1,0,True,False,False,1,False,framed,0,0,0,0,0,1
2193,4,e8jis7nf,2021-03-15 10:12:09.281927+00:00,2,250,,Don't Cheat,0,0,0,1,2,24,7igvdhlu,1,15,152,0,1,2.657142857,2.75,2.5,1.666666667,3.0,2.5,3.0,2.5,2.5,3.0,3.0,3,3,1,0,14,Religionswissenschaft,34,2,18-24,Germany,1,0.041666666666666664,1.0,0.9130434782608695,0.043478260869565216,1,0,True,False,False,1,False,framed,0,1,0,0,1,0
1284,3,7xjh9hwo,2021-03-15 10:12:09.096918+00:00,1,270,Control,,1,0,1,0,2,25,7igvdhlu,1,15,152,23,0,2.485714286,2.5,2.333333333,2.666666667,1.0,3.0,1.8,2.0,2.0,3.0,4.5,3,3,1,11,0,Anglistik/Amerikanistik,39,4,35-44,Germany,23,0.92,0.0,0.041666666666666664,0.9166666666666666,1,0,True,False,False,1,False,framed,0,0,0,0,0,1
2194,4,e8jis7nf,2021-03-15 10:12:09.281927+00:00,2,260,,Don't Cheat,0,0,0,1,2,25,7igvdhlu,1,15,152,0,1,2.657142857,2.75,2.5,1.666666667,3.0,2.5,3.0,2.5,2.5,3.0,3.0,3,3,1,0,14,Religionswissenschaft,34,2,18-24,Germany,1,0.04,1.0,0.9166666666666666,0.041666666666666664,1,0,True,False,False,1,False,framed,0,1,0,0,1,0
1285,3,7xjh9hwo,2021-03-15 10:12:09.096918+00:00,1,281,Control,,1,0,1,0,2,26,7igvdhlu,1,15,152,24,0,2.485714286,2.5,2.333333333,2.666666667,1.0,3.0,1.8,2.0,2.0,3.0,4.5,3,3,1,11,0,Anglistik/Amerikanistik,39,4,35-44,Germany,24,0.9230769230769231,0.0,0.04,0.92,1,0,True,False,False,1,False,framed,0,0,0,0,0,1
2195,4,e8jis7nf,2021-03-15 10:12:09.281927+00:00,2,270,,Don't Cheat,0,0,0,1,2,26,7igvdhlu,1,15,152,0,1,2.657142857,2.75,2.5,1.666666667,3.0,2.5,3.0,2.5,2.5,3.0,3.0,3,3,1,0,14,Religionswissenschaft,34,2,18-24,Germany,1,0.038461538461538464,1.0,0.92,0.04,1,0,True,False,False,1,False,framed,0,1,0,0,1,0
1286,3,7xjh9hwo,2021-03-15 10:12:09.096918+00:00,1,292,Control,,1,0,1,0,2,27,7igvdhlu,1,15,152,25,0,2.485714286,2.5,2.333333333,2.666666667,1.0,3.0,1.8,2.0,2.0,3.0,4.5,3,3,1,11,0,Anglistik/Amerikanistik,39,4,35-44,Germany,25,0.9259259259259259,0.0,0.038461538461538464,0.9230769230769231,1,0,True,False,False,1,False,framed,0,0,0,0,0,1
2196,4,e8jis7nf,2021-03-15 10:12:09.281927+00:00,2,280,,Don't Cheat,0,0,0,1,2,27,7igvdhlu,1,15,152,0,1,2.657142857,2.75,2.5,1.666666667,3.0,2.5,3.0,2.5,2.5,3.0,3.0,3,3,1,0,14,Religionswissenschaft,34,2,18-24,Germany,1,0.037037037037037035,1.0,0.9230769230769231,0.038461538461538464,1,0,True,False,False,1,False,framed,0,1,0,0,1,0
1287,3,7xjh9hwo,2021-03-15 10:12:09.096918+00:00,1,303,Control,,1,0,1,0,2,28,7igvdhlu,1,15,152,26,0,2.485714286,2.5,2.333333333,2.666666667,1.0,3.0,1.8,2.0,2.0,3.0,4.5,3,3,1,11,0,Anglistik/Amerikanistik,39,4,35-44,Germany,26,0.9285714285714286,0.0,0.037037037037037035,0.9259259259259259,1,0,True,False,False,1,False,framed,0,0,0,0,0,1
2197,4,e8jis7nf,2021-03-15 10:12:09.281927+00:00,2,290,,Don't Cheat,0,0,0,1,2,28,7igvdhlu,1,15,152,0,1,2.657142857,2.75,2.5,1.666666667,3.0,2.5,3.0,2.5,2.5,3.0,3.0,3,3,1,0,14,Religionswissenschaft,34,2,18-24,Germany,1,0.03571428571428571,1.0,0.9259259259259259,0.037037037037037035,1,0,True,False,False,1,False,framed,0,1,0,0,1,0
1288,3,7xjh9hwo,2021-03-15 10:12:09.096918+00:00,1,314,Control,,1,0,1,0,2,29,7igvdhlu,1,15,152,27,0,2.485714286,2.5,2.333333333,2.666666667,1.0,3.0,1.8,2.0,2.0,3.0,4.5,3,3,1,11,0,Anglistik/Amerikanistik,39,4,35-44,Germany,27,0.9310344827586207,0.0,0.03571428571428571,0.9285714285714286,1,0,True,False,False,1,False,framed,0,0,0,0,0,1
2198,4,e8jis7nf,2021-03-15 10:12:09.281927+00:00,2,300,,Don't Cheat,0,0,0,1,2,29,7igvdhlu,1,15,152,0,1,2.657142857,2.75,2.5,1.666666667,3.0,2.5,3.0,2.5,2.5,3.0,3.0,3,3,1,0,14,Religionswissenschaft,34,2,18-24,Germany,1,0.034482758620689655,1.0,0.9285714285714286,0.03571428571428571,1,0,True,False,False,1,False,framed,0,1,0,0,1,0
1289,3,7xjh9hwo,2021-03-15 10:12:09.096918+00:00,1,325,Control,,1,0,1,0,2,30,7igvdhlu,1,15,152,28,0,2.485714286,2.5,2.333333333,2.666666667,1.0,3.0,1.8,2.0,2.0,3.0,4.5,3,3,1,11,0,Anglistik/Amerikanistik,39,4,35-44,Germany,28,0.9333333333333333,0.0,0.034482758620689655,0.9310344827586207,1,0,True,False,False,1,False,framed,0,0,0,0,0,1
2199,4,e8jis7nf,2021-03-15 10:12:09.281927+00:00,2,310,,Don't Cheat,0,0,0,1,2,30,7igvdhlu,1,15,152,0,1,2.657142857,2.75,2.5,1.666666667,3.0,2.5,3.0,2.5,2.5,3.0,3.0,3,3,1,0,14,Religionswissenschaft,34,2,18-24,Germany,1,0.03333333333333333,1.0,0.9310344827586207,0.034482758620689655,1,0,True,False,False,1,False,framed,0,1,0,0,1,0
1290,3,7xjh9hwo,2021-03-15 10:12:09.096918+00:00,1,336,Control,,1,0,1,0,2,31,7igvdhlu,1,15,152,29,0,2.485714286,2.5,2.333333333,2.666666667,1.0,3.0,1.8,2.0,2.0,3.0,4.5,3,3,1,11,0,Anglistik/Amerikanistik,39,4,35-44,Germany,29,0.9354838709677419,0.0,0.03333333333333333,0.9333333333333333,1,0,True,False,False,1,False,framed,0,0,0,0,0,1
2200,4,e8jis7nf,2021-03-15 10:12:09.281927+00:00,2,320,,Don't Cheat,0,0,0,1,2,31,7igvdhlu,1,15,152,0,1,2.657142857,2.75,2.5,1.666666667,3.0,2.5,3.0,2.5,2.5,3.0,3.0,3,3,1,0,14,Religionswissenschaft,34,2,18-24,Germany,1,0.03225806451612903,1.0,0.9333333333333333,0.03333333333333333,1,0,True,False,False,1,False,framed,0,1,0,0,1,0
1291,3,7xjh9hwo,2021-03-15 10:12:09.096918+00:00,1,348,Control,,1,0,1,0,2,32,7igvdhlu,1,15,152,30,0,2.485714286,2.5,2.333333333,2.666666667,1.0,3.0,1.8,2.0,2.0,3.0,4.5,3,3,1,11,0,Anglistik/Amerikanistik,39,4,35-44,Germany,30,0.9375,0.0,0.03225806451612903,0.9354838709677419,1,0,True,False,False,1,False,framed,0,0,0,0,0,1
2201,4,e8jis7nf,2021-03-15 10:12:09.281927+00:00,2,322,,Cheat,0,1,1,0,2,32,7igvdhlu,1,15,152,0,2,2.657142857,2.75,2.5,1.666666667,3.0,2.5,3.0,2.5,2.5,3.0,3.0,3,3,1,0,16,Religionswissenschaft,34,2,18-24,Germany,2,0.0625,1.0,0.9354838709677419,0.03225806451612903,1,0,True,False,False,1,False,framed,0,1,0,1,1,0
1292,3,7xjh9hwo,2021-03-15 10:12:09.096918+00:00,1,359,Control,,1,0,1,0,2,33,7igvdhlu,1,15,152,31,0,2.485714286,2.5,2.333333333,2.666666667,1.0,3.0,1.8,2.0,2.0,3.0,4.5,3,3,1,11,0,Anglistik/Amerikanistik,39,4,35-44,Germany,31,0.9393939393939394,1.0,0.0625,0.9375,1,0,True,False,False,1,False,framed,1,0,1,0,0,1
2202,4,e8jis7nf,2021-03-15 10:12:09.281927+00:00,2,332,,Don't Cheat,0,0,0,1,2,33,7igvdhlu,1,15,152,0,2,2.657142857,2.75,2.5,1.666666667,3.0,2.5,3.0,2.5,2.5,3.0,3.0,3,3,1,0,14,Religionswissenschaft,34,2,18-24,Germany,2,0.06060606060606061,1.0,0.9375,0.0625,1,0,True,False,False,1,False,framed,0,1,0,0,1,0
1293,3,7xjh9hwo,2021-03-15 10:12:09.096918+00:00,1,370,Control,,1,0,1,0,2,34,7igvdhlu,1,15,152,32,0,2.485714286,2.5,2.333333333,2.666666667,1.0,3.0,1.8,2.0,2.0,3.0,4.5,3,3,1,11,0,Anglistik/Amerikanistik,39,4,35-44,Germany,32,0.9411764705882353,0.0,0.06060606060606061,0.9393939393939394,1,0,True,False,False,1,False,framed,0,0,0,0,0,1
2203,4,e8jis7nf,2021-03-15 10:12:09.281927+00:00,2,342,,Don't Cheat,0,0,0,1,2,34,7igvdhlu,1,15,152,0,2,2.657142857,2.75,2.5,1.666666667,3.0,2.5,3.0,2.5,2.5,3.0,3.0,3,3,1,0,14,Religionswissenschaft,34,2,18-24,Germany,2,0.058823529411764705,1.0,0.9393939393939394,0.06060606060606061,1,0,True,False,False,1,False,framed,0,1,0,0,1,0
1294,3,7xjh9hwo,2021-03-15 10:12:09.096918+00:00,1,381,Control,,1,0,1,0,2,35,7igvdhlu,1,15,152,33,0,2.485714286,2.5,2.333333333,2.666666667,1.0,3.0,1.8,2.0,2.0,3.0,4.5,3,3,1,11,0,Anglistik/Amerikanistik,39,4,35-44,Germany,33,0.9428571428571428,0.0,0.058823529411764705,0.9411764705882353,1,0,True,False,False,1,False,framed,0,0,0,0,0,1
2204,4,e8jis7nf,2021-03-15 10:12:09.281927+00:00,2,352,,Don't Cheat,0,0,0,1,2,35,7igvdhlu,1,15,152,0,2,2.657142857,2.75,2.5,1.666666667,3.0,2.5,3.0,2.5,2.5,3.0,3.0,3,3,1,0,14,Religionswissenschaft,34,2,18-24,Germany,2,0.05714285714285714,1.0,0.9411764705882353,0.058823529411764705,1,0,True,False,False,1,False,framed,0,1,0,0,1,0
1295,3,7xjh9hwo,2021-03-15 10:12:09.096918+00:00,1,392,Control,,1,0,1,0,2,36,7igvdhlu,1,15,152,34,0,2.485714286,2.5,2.333333333,2.666666667,1.0,3.0,1.8,2.0,2.0,3.0,4.5,3,3,1,11,0,Anglistik/Amerikanistik,39,4,35-44,Germany,34,0.9444444444444444,0.0,0.05714285714285714,0.9428571428571428,1,0,True,False,False,1,False,framed,0,0,0,0,0,1
2205,4,e8jis7nf,2021-03-15 10:12:09.281927+00:00,2,362,,Don't Cheat,0,0,0,1,2,36,7igvdhlu,1,15,152,0,2,2.657142857,2.75,2.5,1.666666667,3.0,2.5,3.0,2.5,2.5,3.0,3.0,3,3,1,0,14,Religionswissenschaft,34,2,18-24,Germany,2,0.05555555555555555,1.0,0.9428571428571428,0.05714285714285714,1,0,True,False,False,1,False,framed,0,1,0,0,1,0
1296,3,7xjh9hwo,2021-03-15 10:12:09.096918+00:00,1,403,Control,,1,0,1,0,2,37,7igvdhlu,1,15,152,35,0,2.485714286,2.5,2.333333333,2.666666667,1.0,3.0,1.8,2.0,2.0,3.0,4.5,3,3,1,11,0,Anglistik/Amerikanistik,39,4,35-44,Germany,35,0.9459459459459459,0.0,0.05555555555555555,0.9444444444444444,1,0,True,False,False,1,False,framed,0,0,0,0,0,1
2206,4,e8jis7nf,2021-03-15 10:12:09.281927+00:00,2,372,,Don't Cheat,0,0,0,1,2,37,7igvdhlu,1,15,152,0,2,2.657142857,2.75,2.5,1.666666667,3.0,2.5,3.0,2.5,2.5,3.0,3.0,3,3,1,0,14,Religionswissenschaft,34,2,18-24,Germany,2,0.05405405405405406,1.0,0.9444444444444444,0.05555555555555555,1,0,True,False,False,1,False,framed,0,1,0,0,1,0
1297,3,7xjh9hwo,2021-03-15 10:12:09.096918+00:00,1,414,Control,,1,0,1,0,2,38,7igvdhlu,1,15,152,36,0,2.485714286,2.5,2.333333333,2.666666667,1.0,3.0,1.8,2.0,2.0,3.0,4.5,3,3,1,11,0,Anglistik/Amerikanistik,39,4,35-44,Germany,36,0.9473684210526315,0.0,0.05405405405405406,0.9459459459459459,1,0,True,False,False,1,False,framed,0,0,0,0,0,1
2207,4,e8jis7nf,2021-03-15 10:12:09.281927+00:00,2,382,,Don't Cheat,0,0,0,1,2,38,7igvdhlu,1,15,152,0,2,2.657142857,2.75,2.5,1.666666667,3.0,2.5,3.0,2.5,2.5,3.0,3.0,3,3,1,0,14,Religionswissenschaft,34,2,18-24,Germany,2,0.05263157894736842,1.0,0.9459459459459459,0.05405405405405406,1,0,True,False,False,1,False,framed,0,1,0,0,1,0
1298,3,7xjh9hwo,2021-03-15 10:12:09.096918+00:00,1,425,Control,,1,0,1,0,2,39,7igvdhlu,1,15,152,37,0,2.485714286,2.5,2.333333333,2.666666667,1.0,3.0,1.8,2.0,2.0,3.0,4.5,3,3,1,11,0,Anglistik/Amerikanistik,39,4,35-44,Germany,37,0.9487179487179487,0.0,0.05263157894736842,0.9473684210526315,1,0,True,False,False,1,False,framed,0,0,0,0,0,1
2208,4,e8jis7nf,2021-03-15 10:12:09.281927+00:00,2,392,,Don't Cheat,0,0,0,1,2,39,7igvdhlu,1,15,152,0,2,2.657142857,2.75,2.5,1.666666667,3.0,2.5,3.0,2.5,2.5,3.0,3.0,3,3,1,0,14,Religionswissenschaft,34,2,18-24,Germany,2,0.05128205128205128,1.0,0.9473684210526315,0.05263157894736842,1,0,True,False,False,1,False,framed,0,1,0,0,1,0
1299,3,7xjh9hwo,2021-03-15 10:12:09.096918+00:00,1,436,Control,,1,0,1,0,2,40,7igvdhlu,1,15,152,38,0,2.485714286,2.5,2.333333333,2.666666667,1.0,3.0,1.8,2.0,2.0,3.0,4.5,3,3,1,11,0,Anglistik/Amerikanistik,39,4,35-44,Germany,38,0.95,0.0,0.05128205128205128,0.9487179487179487,1,0,True,False,False,1,False,framed,0,0,0,0,0,1
2209,4,e8jis7nf,2021-03-15 10:12:09.281927+00:00,2,402,,Don't Cheat,0,0,0,1,2,40,7igvdhlu,1,15,152,0,2,2.657142857,2.75,2.5,1.666666667,3.0,2.5,3.0,2.5,2.5,3.0,3.0,3,3,1,0,14,Religionswissenschaft,34,2,18-24,Germany,2,0.05,1.0,0.9487179487179487,0.05128205128205128,1,0,True,False,False,1,False,framed,0,1,0,0,1,0
1300,3,7xjh9hwo,2021-03-15 10:12:09.096918+00:00,1,447,Control,,1,0,1,0,2,41,7igvdhlu,1,15,152,39,0,2.485714286,2.5,2.333333333,2.666666667,1.0,3.0,1.8,2.0,2.0,3.0,4.5,3,3,1,11,0,Anglistik/Amerikanistik,39,4,35-44,Germany,39,0.9512195121951219,0.0,0.05,0.95,1,0,True,False,False,1,False,framed,0,0,0,0,0,1
2210,4,e8jis7nf,2021-03-15 10:12:09.281927+00:00,2,412,,Don't Cheat,0,0,0,1,2,41,7igvdhlu,1,15,152,0,2,2.657142857,2.75,2.5,1.666666667,3.0,2.5,3.0,2.5,2.5,3.0,3.0,3,3,1,0,14,Religionswissenschaft,34,2,18-24,Germany,2,0.04878048780487805,1.0,0.95,0.05,1,0,True,False,False,1,False,framed,0,1,0,0,1,0
1301,3,7xjh9hwo,2021-03-15 10:12:09.096918+00:00,1,458,Control,,1,0,1,0,2,42,7igvdhlu,1,15,152,40,0,2.485714286,2.5,2.333333333,2.666666667,1.0,3.0,1.8,2.0,2.0,3.0,4.5,3,3,1,11,0,Anglistik/Amerikanistik,39,4,35-44,Germany,40,0.9523809523809523,0.0,0.04878048780487805,0.9512195121951219,1,0,True,False,False,1,False,framed,0,0,0,0,0,1
2211,4,e8jis7nf,2021-03-15 10:12:09.281927+00:00,2,422,,Don't Cheat,0,0,0,1,2,42,7igvdhlu,1,15,152,0,2,2.657142857,2.75,2.5,1.666666667,3.0,2.5,3.0,2.5,2.5,3.0,3.0,3,3,1,0,14,Religionswissenschaft,34,2,18-24,Germany,2,0.047619047619047616,1.0,0.9512195121951219,0.04878048780487805,1,0,True,False,False,1,False,framed,0,1,0,0,1,0
1302,3,7xjh9hwo,2021-03-15 10:12:09.096918+00:00,1,469,Control,,1,0,1,0,2,43,7igvdhlu,1,15,152,41,0,2.485714286,2.5,2.333333333,2.666666667,1.0,3.0,1.8,2.0,2.0,3.0,4.5,3,3,1,11,0,Anglistik/Amerikanistik,39,4,35-44,Germany,41,0.9534883720930233,0.0,0.047619047619047616,0.9523809523809523,1,0,True,False,False,1,False,framed,0,0,0,0,0,1
2212,4,e8jis7nf,2021-03-15 10:12:09.281927+00:00,2,432,,Don't Cheat,0,0,0,1,2,43,7igvdhlu,1,15,152,0,2,2.657142857,2.75,2.5,1.666666667,3.0,2.5,3.0,2.5,2.5,3.0,3.0,3,3,1,0,14,Religionswissenschaft,34,2,18-24,Germany,2,0.046511627906976744,1.0,0.9523809523809523,0.047619047619047616,1,0,True,False,False,1,False,framed,0,1,0,0,1,0
1303,3,7xjh9hwo,2021-03-15 10:12:09.096918+00:00,1,480,Control,,1,0,1,0,2,44,7igvdhlu,1,15,152,42,0,2.485714286,2.5,2.333333333,2.666666667,1.0,3.0,1.8,2.0,2.0,3.0,4.5,3,3,1,11,0,Anglistik/Amerikanistik,39,4,35-44,Germany,42,0.9545454545454546,0.0,0.046511627906976744,0.9534883720930233,1,0,True,False,False,1,False,framed,0,0,0,0,0,1
2213,4,e8jis7nf,2021-03-15 10:12:09.281927+00:00,2,442,,Don't Cheat,0,0,0,1,2,44,7igvdhlu,1,15,152,0,2,2.657142857,2.75,2.5,1.666666667,3.0,2.5,3.0,2.5,2.5,3.0,3.0,3,3,1,0,14,Religionswissenschaft,34,2,18-24,Germany,2,0.045454545454545456,1.0,0.9534883720930233,0.046511627906976744,1,0,True,False,False,1,False,framed,0,1,0,0,1,0
1304,3,7xjh9hwo,2021-03-15 10:12:09.096918+00:00,1,491,Control,,1,0,1,0,2,45,7igvdhlu,1,15,152,43,0,2.485714286,2.5,2.333333333,2.666666667,1.0,3.0,1.8,2.0,2.0,3.0,4.5,3,3,1,11,0,Anglistik/Amerikanistik,39,4,35-44,Germany,43,0.9555555555555556,0.0,0.045454545454545456,0.9545454545454546,1,0,True,False,False,1,False,framed,0,0,0,0,0,1
2214,4,e8jis7nf,2021-03-15 10:12:09.281927+00:00,2,452,,Don't Cheat,0,0,0,1,2,45,7igvdhlu,1,15,152,0,2,2.657142857,2.75,2.5,1.666666667,3.0,2.5,3.0,2.5,2.5,3.0,3.0,3,3,1,0,14,Religionswissenschaft,34,2,18-24,Germany,2,0.044444444444444446,1.0,0.9545454545454546,0.045454545454545456,1,0,True,False,False,1,False,framed,0,1,0,0,1,0
1305,3,7xjh9hwo,2021-03-15 10:12:09.096918+00:00,1,502,Control,,1,0,1,0,2,46,7igvdhlu,1,15,152,44,0,2.485714286,2.5,2.333333333,2.666666667,1.0,3.0,1.8,2.0,2.0,3.0,4.5,3,3,1,11,0,Anglistik/Amerikanistik,39,4,35-44,Germany,44,0.9565217391304348,0.0,0.044444444444444446,0.9555555555555556,1,0,True,False,False,1,False,framed,0,0,0,0,0,1
2215,4,e8jis7nf,2021-03-15 10:12:09.281927+00:00,2,462,,Don't Cheat,0,0,0,1,2,46,7igvdhlu,1,15,152,0,2,2.657142857,2.75,2.5,1.666666667,3.0,2.5,3.0,2.5,2.5,3.0,3.0,3,3,1,0,14,Religionswissenschaft,34,2,18-24,Germany,2,0.043478260869565216,1.0,0.9555555555555556,0.044444444444444446,1,0,True,False,False,1,False,framed,0,1,0,0,1,0
1306,3,7xjh9hwo,2021-03-15 10:12:09.096918+00:00,1,513,Control,,1,0,1,0,2,47,7igvdhlu,1,15,152,45,0,2.485714286,2.5,2.333333333,2.666666667,1.0,3.0,1.8,2.0,2.0,3.0,4.5,3,3,1,11,0,Anglistik/Amerikanistik,39,4,35-44,Germany,45,0.9574468085106383,0.0,0.043478260869565216,0.9565217391304348,1,0,True,False,False,1,False,framed,0,0,0,0,0,1
2216,4,e8jis7nf,2021-03-15 10:12:09.281927+00:00,2,472,,Don't Cheat,0,0,0,1,2,47,7igvdhlu,1,15,152,0,2,2.657142857,2.75,2.5,1.666666667,3.0,2.5,3.0,2.5,2.5,3.0,3.0,3,3,1,0,14,Religionswissenschaft,34,2,18-24,Germany,2,0.0425531914893617,1.0,0.9565217391304348,0.043478260869565216,1,0,True,False,False,1,False,framed,0,1,0,0,1,0
1307,3,7xjh9hwo,2021-03-15 10:12:09.096918+00:00,1,524,Control,,1,0,1,0,2,48,7igvdhlu,1,15,152,46,0,2.485714286,2.5,2.333333333,2.666666667,1.0,3.0,1.8,2.0,2.0,3.0,4.5,3,3,1,11,0,Anglistik/Amerikanistik,39,4,35-44,Germany,46,0.9583333333333334,0.0,0.0425531914893617,0.9574468085106383,1,0,True,False,False,1,False,framed,0,0,0,0,0,1
2217,4,e8jis7nf,2021-03-15 10:12:09.281927+00:00,2,482,,Don't Cheat,0,0,0,1,2,48,7igvdhlu,1,15,152,0,2,2.657142857,2.75,2.5,1.666666667,3.0,2.5,3.0,2.5,2.5,3.0,3.0,3,3,1,0,14,Religionswissenschaft,34,2,18-24,Germany,2,0.041666666666666664,1.0,0.9574468085106383,0.0425531914893617,1,0,True,False,False,1,False,framed,0,1,0,0,1,0
1308,3,7xjh9hwo,2021-03-15 10:12:09.096918+00:00,1,535,Control,,1,0,1,0,2,49,7igvdhlu,1,15,152,47,0,2.485714286,2.5,2.333333333,2.666666667,1.0,3.0,1.8,2.0,2.0,3.0,4.5,3,3,1,11,0,Anglistik/Amerikanistik,39,4,35-44,Germany,47,0.9591836734693877,0.0,0.041666666666666664,0.9583333333333334,1,0,True,False,False,1,False,framed,0,0,0,0,0,1
2218,4,e8jis7nf,2021-03-15 10:12:09.281927+00:00,2,492,,Don't Cheat,0,0,0,1,2,49,7igvdhlu,1,15,152,0,2,2.657142857,2.75,2.5,1.666666667,3.0,2.5,3.0,2.5,2.5,3.0,3.0,3,3,1,0,14,Religionswissenschaft,34,2,18-24,Germany,2,0.04081632653061224,1.0,0.9583333333333334,0.041666666666666664,1,0,True,False,False,1,False,framed,0,1,0,0,1,0
1309,3,7xjh9hwo,2021-03-15 10:12:09.096918+00:00,1,546,Control,,1,0,1,0,2,50,7igvdhlu,1,15,152,48,0,2.485714286,2.5,2.333333333,2.666666667,1.0,3.0,1.8,2.0,2.0,3.0,4.5,3,3,1,11,0,Anglistik/Amerikanistik,39,4,35-44,Germany,48,0.96,0.0,0.04081632653061224,0.9591836734693877,1,0,True,False,False,1,False,framed,0,0,0,0,0,1
2219,4,e8jis7nf,2021-03-15 10:12:09.281927+00:00,2,502,,Don't Cheat,0,0,0,1,2,50,7igvdhlu,1,15,152,0,2,2.657142857,2.75,2.5,1.666666667,3.0,2.5,3.0,2.5,2.5,3.0,3.0,3,3,1,0,14,Religionswissenschaft,34,2,18-24,Germany,2,0.04,1.0,0.9591836734693877,0.04081632653061224,1,0,True,False,False,1,False,framed,0,1,0,0,1,0
1310,3,7xjh9hwo,2021-03-15 10:12:09.096918+00:00,1,557,Control,,1,0,1,0,2,51,7igvdhlu,1,15,152,49,0,2.485714286,2.5,2.333333333,2.666666667,1.0,3.0,1.8,2.0,2.0,3.0,4.5,3,3,1,11,0,Anglistik/Amerikanistik,39,4,35-44,Germany,49,0.9607843137254902,0.0,0.04,0.96,1,0,True,False,False,1,False,framed,0,0,0,0,0,1
2220,4,e8jis7nf,2021-03-15 10:12:09.281927+00:00,2,512,,Don't Cheat,0,0,0,1,2,51,7igvdhlu,1,15,152,0,2,2.657142857,2.75,2.5,1.666666667,3.0,2.5,3.0,2.5,2.5,3.0,3.0,3,3,1,0,14,Religionswissenschaft,34,2,18-24,Germany,2,0.0392156862745098,1.0,0.96,0.04,1,0,True,False,False,1,False,framed,0,1,0,0,1,0
1311,3,7xjh9hwo,2021-03-15 10:12:09.096918+00:00,1,568,Control,,1,0,1,0,2,52,7igvdhlu,1,15,152,50,0,2.485714286,2.5,2.333333333,2.666666667,1.0,3.0,1.8,2.0,2.0,3.0,4.5,3,3,1,11,0,Anglistik/Amerikanistik,39,4,35-44,Germany,50,0.9615384615384616,0.0,0.0392156862745098,0.9607843137254902,1,0,True,False,False,1,False,framed,0,0,0,0,0,1
2221,4,e8jis7nf,2021-03-15 10:12:09.281927+00:00,2,522,,Don't Cheat,0,0,0,1,2,52,7igvdhlu,1,15,152,0,2,2.657142857,2.75,2.5,1.666666667,3.0,2.5,3.0,2.5,2.5,3.0,3.0,3,3,1,0,14,Religionswissenschaft,34,2,18-24,Germany,2,0.038461538461538464,1.0,0.9607843137254902,0.0392156862745098,1,0,True,False,False,1,False,framed,0,1,0,0,1,0
1312,3,7xjh9hwo,2021-03-15 10:12:09.096918+00:00,1,579,Control,,1,0,1,0,2,53,7igvdhlu,1,15,152,51,0,2.485714286,2.5,2.333333333,2.666666667,1.0,3.0,1.8,2.0,2.0,3.0,4.5,3,3,1,11,0,Anglistik/Amerikanistik,39,4,35-44,Germany,51,0.9622641509433962,0.0,0.038461538461538464,0.9615384615384616,1,0,True,False,False,1,False,framed,0,0,0,0,0,1
2222,4,e8jis7nf,2021-03-15 10:12:09.281927+00:00,2,532,,Don't Cheat,0,0,0,1,2,53,7igvdhlu,1,15,152,0,2,2.657142857,2.75,2.5,1.666666667,3.0,2.5,3.0,2.5,2.5,3.0,3.0,3,3,1,0,14,Religionswissenschaft,34,2,18-24,Germany,2,0.03773584905660377,1.0,0.9615384615384616,0.038461538461538464,1,0,True,False,False,1,False,framed,0,1,0,0,1,0
1313,3,7xjh9hwo,2021-03-15 10:12:09.096918+00:00,1,591,Control,,1,0,1,0,2,54,7igvdhlu,1,15,152,52,0,2.485714286,2.5,2.333333333,2.666666667,1.0,3.0,1.8,2.0,2.0,3.0,4.5,3,3,1,11,0,Anglistik/Amerikanistik,39,4,35-44,Germany,52,0.9629629629629629,0.0,0.03773584905660377,0.9622641509433962,1,0,True,False,False,1,False,framed,0,0,0,0,0,1
2223,4,e8jis7nf,2021-03-15 10:12:09.281927+00:00,2,534,,Cheat,0,1,1,0,2,54,7igvdhlu,1,15,152,0,3,2.657142857,2.75,2.5,1.666666667,3.0,2.5,3.0,2.5,2.5,3.0,3.0,3,3,1,0,16,Religionswissenschaft,34,2,18-24,Germany,3,0.05555555555555555,1.0,0.9622641509433962,0.03773584905660377,1,0,True,False,False,1,False,framed,0,1,0,1,1,0
1314,3,7xjh9hwo,2021-03-15 10:12:09.096918+00:00,1,602,Control,,1,0,1,0,2,55,7igvdhlu,1,15,152,53,0,2.485714286,2.5,2.333333333,2.666666667,1.0,3.0,1.8,2.0,2.0,3.0,4.5,3,3,1,11,0,Anglistik/Amerikanistik,39,4,35-44,Germany,53,0.9636363636363636,1.0,0.05555555555555555,0.9629629629629629,1,0,True,False,False,1,False,framed,1,0,1,0,0,1
2224,4,e8jis7nf,2021-03-15 10:12:09.281927+00:00,2,544,,Don't Cheat,0,0,0,1,2,55,7igvdhlu,1,15,152,0,3,2.657142857,2.75,2.5,1.666666667,3.0,2.5,3.0,2.5,2.5,3.0,3.0,3,3,1,0,14,Religionswissenschaft,34,2,18-24,Germany,3,0.05454545454545454,1.0,0.9629629629629629,0.05555555555555555,1,0,True,False,False,1,False,framed,0,1,0,0,1,0
1315,3,7xjh9hwo,2021-03-15 10:12:09.096918+00:00,1,613,Control,,1,0,1,0,2,56,7igvdhlu,1,15,152,54,0,2.485714286,2.5,2.333333333,2.666666667,1.0,3.0,1.8,2.0,2.0,3.0,4.5,3,3,1,11,0,Anglistik/Amerikanistik,39,4,35-44,Germany,54,0.9642857142857143,0.0,0.05454545454545454,0.9636363636363636,1,0,True,False,False,1,False,framed,0,0,0,0,0,1
2225,4,e8jis7nf,2021-03-15 10:12:09.281927+00:00,2,554,,Don't Cheat,0,0,0,1,2,56,7igvdhlu,1,15,152,0,3,2.657142857,2.75,2.5,1.666666667,3.0,2.5,3.0,2.5,2.5,3.0,3.0,3,3,1,0,14,Religionswissenschaft,34,2,18-24,Germany,3,0.05357142857142857,1.0,0.9636363636363636,0.05454545454545454,1,0,True,False,False,1,False,framed,0,1,0,0,1,0
1316,3,7xjh9hwo,2021-03-15 10:12:09.096918+00:00,1,624,Control,,1,0,1,0,2,57,7igvdhlu,1,15,152,55,0,2.485714286,2.5,2.333333333,2.666666667,1.0,3.0,1.8,2.0,2.0,3.0,4.5,3,3,1,11,0,Anglistik/Amerikanistik,39,4,35-44,Germany,55,0.9649122807017544,0.0,0.05357142857142857,0.9642857142857143,1,0,True,False,False,1,False,framed,0,0,0,0,0,1
2226,4,e8jis7nf,2021-03-15 10:12:09.281927+00:00,2,564,,Don't Cheat,0,0,0,1,2,57,7igvdhlu,1,15,152,0,3,2.657142857,2.75,2.5,1.666666667,3.0,2.5,3.0,2.5,2.5,3.0,3.0,3,3,1,0,14,Religionswissenschaft,34,2,18-24,Germany,3,0.05263157894736842,1.0,0.9642857142857143,0.05357142857142857,1,0,True,False,False,1,False,framed,0,1,0,0,1,0
1317,3,7xjh9hwo,2021-03-15 10:12:09.096918+00:00,1,635,Control,,1,0,1,0,2,58,7igvdhlu,1,15,152,56,0,2.485714286,2.5,2.333333333,2.666666667,1.0,3.0,1.8,2.0,2.0,3.0,4.5,3,3,1,11,0,Anglistik/Amerikanistik,39,4,35-44,Germany,56,0.9655172413793104,0.0,0.05263157894736842,0.9649122807017544,1,0,True,False,False,1,False,framed,0,0,0,0,0,1
2227,4,e8jis7nf,2021-03-15 10:12:09.281927+00:00,2,574,,Don't Cheat,0,0,0,1,2,58,7igvdhlu,1,15,152,0,3,2.657142857,2.75,2.5,1.666666667,3.0,2.5,3.0,2.5,2.5,3.0,3.0,3,3,1,0,14,Religionswissenschaft,34,2,18-24,Germany,3,0.05172413793103448,1.0,0.9649122807017544,0.05263157894736842,1,0,True,False,False,1,False,framed,0,1,0,0,1,0
1318,3,7xjh9hwo,2021-03-15 10:12:09.096918+00:00,1,646,Control,,1,0,1,0,2,59,7igvdhlu,1,15,152,57,0,2.485714286,2.5,2.333333333,2.666666667,1.0,3.0,1.8,2.0,2.0,3.0,4.5,3,3,1,11,0,Anglistik/Amerikanistik,39,4,35-44,Germany,57,0.9661016949152542,0.0,0.05172413793103448,0.9655172413793104,1,0,True,False,False,1,False,framed,0,0,0,0,0,1
2228,4,e8jis7nf,2021-03-15 10:12:09.281927+00:00,2,584,,Don't Cheat,0,0,0,1,2,59,7igvdhlu,1,15,152,0,3,2.657142857,2.75,2.5,1.666666667,3.0,2.5,3.0,2.5,2.5,3.0,3.0,3,3,1,0,14,Religionswissenschaft,34,2,18-24,Germany,3,0.05084745762711865,1.0,0.9655172413793104,0.05172413793103448,1,0,True,False,False,1,False,framed,0,1,0,0,1,0
1319,3,7xjh9hwo,2021-03-15 10:12:09.096918+00:00,1,657,Control,,1,0,1,0,2,60,7igvdhlu,1,15,152,58,0,2.485714286,2.5,2.333333333,2.666666667,1.0,3.0,1.8,2.0,2.0,3.0,4.5,3,3,1,11,0,Anglistik/Amerikanistik,39,4,35-44,Germany,58,0.9666666666666667,0.0,0.05084745762711865,0.9661016949152542,1,0,True,False,False,1,False,framed,0,0,0,0,0,1
2229,4,e8jis7nf,2021-03-15 10:12:09.281927+00:00,2,594,,Don't Cheat,0,0,0,1,2,60,7igvdhlu,1,15,152,0,3,2.657142857,2.75,2.5,1.666666667,3.0,2.5,3.0,2.5,2.5,3.0,3.0,3,3,1,0,14,Religionswissenschaft,34,2,18-24,Germany,3,0.05,1.0,0.9661016949152542,0.05084745762711865,1,0,True,False,False,1,False,framed,0,1,0,0,1,0
1320,3,7xjh9hwo,2021-03-15 10:12:09.096918+00:00,1,668,Control,,1,0,1,0,2,61,7igvdhlu,1,15,152,59,0,2.485714286,2.5,2.333333333,2.666666667,1.0,3.0,1.8,2.0,2.0,3.0,4.5,3,3,1,11,0,Anglistik/Amerikanistik,39,4,35-44,Germany,59,0.9672131147540983,0.0,0.05,0.9666666666666667,1,0,True,False,False,1,False,framed,0,0,0,0,0,1
2230,4,e8jis7nf,2021-03-15 10:12:09.281927+00:00,2,604,,Don't Cheat,0,0,0,1,2,61,7igvdhlu,1,15,152,0,3,2.657142857,2.75,2.5,1.666666667,3.0,2.5,3.0,2.5,2.5,3.0,3.0,3,3,1,0,14,Religionswissenschaft,34,2,18-24,Germany,3,0.04918032786885246,1.0,0.9666666666666667,0.05,1,0,True,False,False,1,False,framed,0,1,0,0,1,0
1321,3,7xjh9hwo,2021-03-15 10:12:09.096918+00:00,1,679,Control,,1,0,1,0,2,62,7igvdhlu,1,15,152,60,0,2.485714286,2.5,2.333333333,2.666666667,1.0,3.0,1.8,2.0,2.0,3.0,4.5,3,3,1,11,0,Anglistik/Amerikanistik,39,4,35-44,Germany,60,0.967741935483871,0.0,0.04918032786885246,0.9672131147540983,1,0,True,False,False,1,False,framed,0,0,0,0,0,1
2231,4,e8jis7nf,2021-03-15 10:12:09.281927+00:00,2,614,,Don't Cheat,0,0,0,1,2,62,7igvdhlu,1,15,152,0,3,2.657142857,2.75,2.5,1.666666667,3.0,2.5,3.0,2.5,2.5,3.0,3.0,3,3,1,0,14,Religionswissenschaft,34,2,18-24,Germany,3,0.04838709677419355,1.0,0.9672131147540983,0.04918032786885246,1,0,True,False,False,1,False,framed,0,1,0,0,1,0
1322,3,7xjh9hwo,2021-03-15 10:12:09.096918+00:00,1,690,Control,,1,0,1,0,2,63,7igvdhlu,1,15,152,61,0,2.485714286,2.5,2.333333333,2.666666667,1.0,3.0,1.8,2.0,2.0,3.0,4.5,3,3,1,11,0,Anglistik/Amerikanistik,39,4,35-44,Germany,61,0.9682539682539683,0.0,0.04838709677419355,0.967741935483871,1,0,True,False,False,1,False,framed,0,0,0,0,0,1
2232,4,e8jis7nf,2021-03-15 10:12:09.281927+00:00,2,624,,Don't Cheat,0,0,0,1,2,63,7igvdhlu,1,15,152,0,3,2.657142857,2.75,2.5,1.666666667,3.0,2.5,3.0,2.5,2.5,3.0,3.0,3,3,1,0,14,Religionswissenschaft,34,2,18-24,Germany,3,0.047619047619047616,1.0,0.967741935483871,0.04838709677419355,1,0,True,False,False,1,False,framed,0,1,0,0,1,0
1323,3,7xjh9hwo,2021-03-15 10:12:09.096918+00:00,1,701,Control,,1,0,1,0,2,64,7igvdhlu,1,15,152,62,0,2.485714286,2.5,2.333333333,2.666666667,1.0,3.0,1.8,2.0,2.0,3.0,4.5,3,3,1,11,0,Anglistik/Amerikanistik,39,4,35-44,Germany,62,0.96875,0.0,0.047619047619047616,0.9682539682539683,1,0,True,False,False,1,False,framed,0,0,0,0,0,1
2233,4,e8jis7nf,2021-03-15 10:12:09.281927+00:00,2,634,,Don't Cheat,0,0,0,1,2,64,7igvdhlu,1,15,152,0,3,2.657142857,2.75,2.5,1.666666667,3.0,2.5,3.0,2.5,2.5,3.0,3.0,3,3,1,0,14,Religionswissenschaft,34,2,18-24,Germany,3,0.046875,1.0,0.9682539682539683,0.047619047619047616,1,0,True,False,False,1,False,framed,0,1,0,0,1,0
1324,3,7xjh9hwo,2021-03-15 10:12:09.096918+00:00,1,712,Control,,1,0,1,0,2,65,7igvdhlu,1,15,152,63,0,2.485714286,2.5,2.333333333,2.666666667,1.0,3.0,1.8,2.0,2.0,3.0,4.5,3,3,1,11,0,Anglistik/Amerikanistik,39,4,35-44,Germany,63,0.9692307692307692,0.0,0.046875,0.96875,1,0,True,False,False,1,False,framed,0,0,0,0,0,1
2234,4,e8jis7nf,2021-03-15 10:12:09.281927+00:00,2,644,,Don't Cheat,0,0,0,1,2,65,7igvdhlu,1,15,152,0,3,2.657142857,2.75,2.5,1.666666667,3.0,2.5,3.0,2.5,2.5,3.0,3.0,3,3,1,0,14,Religionswissenschaft,34,2,18-24,Germany,3,0.046153846153846156,1.0,0.96875,0.046875,1,0,True,False,False,1,False,framed,0,1,0,0,1,0
1325,3,7xjh9hwo,2021-03-15 10:12:09.096918+00:00,1,724,Control,,1,0,1,0,2,66,7igvdhlu,1,15,152,64,0,2.485714286,2.5,2.333333333,2.666666667,1.0,3.0,1.8,2.0,2.0,3.0,4.5,3,3,1,11,0,Anglistik/Amerikanistik,39,4,35-44,Germany,64,0.9696969696969697,0.0,0.046153846153846156,0.9692307692307692,1,0,True,False,False,1,False,framed,0,0,0,0,0,1
2235,4,e8jis7nf,2021-03-15 10:12:09.281927+00:00,2,646,,Cheat,0,1,1,0,2,66,7igvdhlu,1,15,152,0,4,2.657142857,2.75,2.5,1.666666667,3.0,2.5,3.0,2.5,2.5,3.0,3.0,3,3,1,0,16,Religionswissenschaft,34,2,18-24,Germany,4,0.06060606060606061,1.0,0.9692307692307692,0.046153846153846156,1,0,True,False,False,1,False,framed,0,1,0,1,1,0
1326,3,7xjh9hwo,2021-03-15 10:12:09.096918+00:00,1,735,Control,,1,0,1,0,2,67,7igvdhlu,1,15,152,65,0,2.485714286,2.5,2.333333333,2.666666667,1.0,3.0,1.8,2.0,2.0,3.0,4.5,3,3,1,11,0,Anglistik/Amerikanistik,39,4,35-44,Germany,65,0.9701492537313433,1.0,0.06060606060606061,0.9696969696969697,1,0,True,False,False,1,False,framed,1,0,1,0,0,1
2236,4,e8jis7nf,2021-03-15 10:12:09.281927+00:00,2,656,,Don't Cheat,0,0,0,1,2,67,7igvdhlu,1,15,152,0,4,2.657142857,2.75,2.5,1.666666667,3.0,2.5,3.0,2.5,2.5,3.0,3.0,3,3,1,0,14,Religionswissenschaft,34,2,18-24,Germany,4,0.05970149253731343,1.0,0.9696969696969697,0.06060606060606061,1,0,True,False,False,1,False,framed,0,1,0,0,1,0
1327,3,7xjh9hwo,2021-03-15 10:12:09.096918+00:00,1,746,Control,,1,0,1,0,2,68,7igvdhlu,1,15,152,66,0,2.485714286,2.5,2.333333333,2.666666667,1.0,3.0,1.8,2.0,2.0,3.0,4.5,3,3,1,11,0,Anglistik/Amerikanistik,39,4,35-44,Germany,66,0.9705882352941176,0.0,0.05970149253731343,0.9701492537313433,1,0,True,False,False,1,False,framed,0,0,0,0,0,1
2237,4,e8jis7nf,2021-03-15 10:12:09.281927+00:00,2,666,,Don't Cheat,0,0,0,1,2,68,7igvdhlu,1,15,152,0,4,2.657142857,2.75,2.5,1.666666667,3.0,2.5,3.0,2.5,2.5,3.0,3.0,3,3,1,0,14,Religionswissenschaft,34,2,18-24,Germany,4,0.058823529411764705,1.0,0.9701492537313433,0.05970149253731343,1,0,True,False,False,1,False,framed,0,1,0,0,1,0
1328,3,7xjh9hwo,2021-03-15 10:12:09.096918+00:00,1,757,Control,,1,0,1,0,2,69,7igvdhlu,1,15,152,67,0,2.485714286,2.5,2.333333333,2.666666667,1.0,3.0,1.8,2.0,2.0,3.0,4.5,3,3,1,11,0,Anglistik/Amerikanistik,39,4,35-44,Germany,67,0.9710144927536232,0.0,0.058823529411764705,0.9705882352941176,1,0,True,False,False,1,False,framed,0,0,0,0,0,1
2238,4,e8jis7nf,2021-03-15 10:12:09.281927+00:00,2,676,,Don't Cheat,0,0,0,1,2,69,7igvdhlu,1,15,152,0,4,2.657142857,2.75,2.5,1.666666667,3.0,2.5,3.0,2.5,2.5,3.0,3.0,3,3,1,0,14,Religionswissenschaft,34,2,18-24,Germany,4,0.057971014492753624,1.0,0.9705882352941176,0.058823529411764705,1,0,True,False,False,1,False,framed,0,1,0,0,1,0
1329,3,7xjh9hwo,2021-03-15 10:12:09.096918+00:00,1,768,Control,,1,0,1,0,2,70,7igvdhlu,1,15,152,68,0,2.485714286,2.5,2.333333333,2.666666667,1.0,3.0,1.8,2.0,2.0,3.0,4.5,3,3,1,11,0,Anglistik/Amerikanistik,39,4,35-44,Germany,68,0.9714285714285714,0.0,0.057971014492753624,0.9710144927536232,1,0,True,False,False,1,False,framed,0,0,0,0,0,1
2239,4,e8jis7nf,2021-03-15 10:12:09.281927+00:00,2,686,,Don't Cheat,0,0,0,1,2,70,7igvdhlu,1,15,152,0,4,2.657142857,2.75,2.5,1.666666667,3.0,2.5,3.0,2.5,2.5,3.0,3.0,3,3,1,0,14,Religionswissenschaft,34,2,18-24,Germany,4,0.05714285714285714,1.0,0.9710144927536232,0.057971014492753624,1,0,True,False,False,1,False,framed,0,1,0,0,1,0
3500,6,iyu7t1vc,2021-03-15 10:12:12.917261+00:00,2,14,,Don't Cheat,0,0,0,1,3,1,7igvdhlu,1,15,153,0,0,1.914285714,1.75,2.0,2.0,1.5,1.75,1.6,3.0,1.5,1.666666667,3.5,1,2,2,0,14,International Business and Social Siences,20,2,18-24,Germany,0,0.0,-1.0,0.0,0.0,1,1,False,False,False,1,False,framed,0,0,0,0,0,1
6930,5,zo9j0hsi,2021-03-15 10:12:10.857947+00:00,1,14,Don't Control,,0,0,0,1,3,1,7igvdhlu,1,15,153,0,0,2.657142857,2.5,2.666666667,4.333333333,3.0,3.25,2.6,2.0,1.5,2.0,3.0,1,2,1,14,0,"Bionengineering, B.Sc.",3,3,25-34,"Bolivia, Plurinational State of",0,0.0,-1.0,0.0,0.0,0,0,True,False,False,1,False,framed,0,0,0,0,1,0
3501,6,iyu7t1vc,2021-03-15 10:12:12.917261+00:00,2,28,,Don't Cheat,0,0,0,1,3,2,7igvdhlu,1,15,153,0,0,1.914285714,1.75,2.0,2.0,1.5,1.75,1.6,3.0,1.5,1.666666667,3.5,1,2,2,0,14,International Business and Social Siences,20,2,18-24,Germany,0,0.0,0.0,0.0,0.0,1,1,False,False,False,1,False,framed,0,0,0,0,0,1
6931,5,zo9j0hsi,2021-03-15 10:12:10.857947+00:00,1,28,Don't Control,,0,0,0,1,3,2,7igvdhlu,1,15,153,0,0,2.657142857,2.5,2.666666667,4.333333333,3.0,3.25,2.6,2.0,1.5,2.0,3.0,1,2,1,14,0,"Bionengineering, B.Sc.",3,3,25-34,"Bolivia, Plurinational State of",0,0.0,0.0,0.0,0.0,0,0,True,False,False,1,False,framed,0,0,0,0,1,0
3502,6,iyu7t1vc,2021-03-15 10:12:12.917261+00:00,2,42,,Don't Cheat,0,0,0,1,3,3,7igvdhlu,1,15,153,0,0,1.914285714,1.75,2.0,2.0,1.5,1.75,1.6,3.0,1.5,1.666666667,3.5,1,2,2,0,14,International Business and Social Siences,20,2,18-24,Germany,0,0.0,0.0,0.0,0.0,1,1,False,False,False,1,False,framed,0,0,0,0,0,1
6932,5,zo9j0hsi,2021-03-15 10:12:10.857947+00:00,1,42,Don't Control,,0,0,0,1,3,3,7igvdhlu,1,15,153,0,0,2.657142857,2.5,2.666666667,4.333333333,3.0,3.25,2.6,2.0,1.5,2.0,3.0,1,2,1,14,0,"Bionengineering, B.Sc.",3,3,25-34,"Bolivia, Plurinational State of",0,0.0,0.0,0.0,0.0,0,0,True,False,False,1,False,framed,0,0,0,0,1,0
3503,6,iyu7t1vc,2021-03-15 10:12:12.917261+00:00,2,58,,Cheat,0,1,1,0,3,4,7igvdhlu,1,15,153,0,1,1.914285714,1.75,2.0,2.0,1.5,1.75,1.6,3.0,1.5,1.666666667,3.5,1,2,2,0,16,International Business and Social Siences,20,2,18-24,Germany,1,0.25,0.0,0.0,0.0,1,1,False,False,False,1,False,framed,0,0,0,0,0,1
6933,5,zo9j0hsi,2021-03-15 10:12:10.857947+00:00,1,45,Don't Control,,0,0,0,1,3,4,7igvdhlu,1,15,153,0,0,2.657142857,2.5,2.666666667,4.333333333,3.0,3.25,2.6,2.0,1.5,2.0,3.0,1,2,1,14,0,"Bionengineering, B.Sc.",3,3,25-34,"Bolivia, Plurinational State of",0,0.0,0.0,0.0,0.0,0,0,True,False,False,1,False,framed,1,0,0,0,1,0
3504,6,iyu7t1vc,2021-03-15 10:12:12.917261+00:00,2,74,,Cheat,0,1,1,0,3,5,7igvdhlu,1,15,153,0,2,1.914285714,1.75,2.0,2.0,1.5,1.75,1.6,3.0,1.5,1.666666667,3.5,1,2,2,0,16,International Business and Social Siences,20,2,18-24,Germany,2,0.4,0.0,0.0,0.25,1,1,False,False,False,1,False,framed,0,0,0,0,0,1
6934,5,zo9j0hsi,2021-03-15 10:12:10.857947+00:00,1,48,Don't Control,,0,0,0,1,3,5,7igvdhlu,1,15,153,0,0,2.657142857,2.5,2.666666667,4.333333333,3.0,3.25,2.6,2.0,1.5,2.0,3.0,1,2,1,14,0,"Bionengineering, B.Sc.",3,3,25-34,"Bolivia, Plurinational State of",0,0.0,1.0,0.25,0.0,0,0,True,False,False,1,False,framed,1,0,0,0,1,0
3505,6,iyu7t1vc,2021-03-15 10:12:12.917261+00:00,2,90,,Cheat,0,1,1,0,3,6,7igvdhlu,1,15,153,0,3,1.914285714,1.75,2.0,2.0,1.5,1.75,1.6,3.0,1.5,1.666666667,3.5,1,2,2,0,16,International Business and Social Siences,20,2,18-24,Germany,3,0.5,0.0,0.0,0.4,1,1,False,False,False,1,False,framed,0,0,0,0,0,1
6935,5,zo9j0hsi,2021-03-15 10:12:10.857947+00:00,1,51,Don't Control,,0,0,0,1,3,6,7igvdhlu,1,15,153,0,0,2.657142857,2.5,2.666666667,4.333333333,3.0,3.25,2.6,2.0,1.5,2.0,3.0,1,2,1,14,0,"Bionengineering, B.Sc.",3,3,25-34,"Bolivia, Plurinational State of",0,0.0,1.0,0.4,0.0,0,0,True,False,False,1,False,framed,1,0,0,0,1,0
3506,6,iyu7t1vc,2021-03-15 10:12:12.917261+00:00,2,106,,Cheat,0,1,1,0,3,7,7igvdhlu,1,15,153,0,4,1.914285714,1.75,2.0,2.0,1.5,1.75,1.6,3.0,1.5,1.666666667,3.5,1,2,2,0,16,International Business and Social Siences,20,2,18-24,Germany,4,0.5714285714285714,0.0,0.0,0.5,1,1,False,False,False,1,False,framed,0,0,0,0,0,1
6936,5,zo9j0hsi,2021-03-15 10:12:10.857947+00:00,1,54,Don't Control,,0,0,0,1,3,7,7igvdhlu,1,15,153,0,0,2.657142857,2.5,2.666666667,4.333333333,3.0,3.25,2.6,2.0,1.5,2.0,3.0,1,2,1,14,0,"Bionengineering, B.Sc.",3,3,25-34,"Bolivia, Plurinational State of",0,0.0,1.0,0.5,0.0,0,0,True,False,False,1,False,framed,1,0,0,0,1,0
3507,6,iyu7t1vc,2021-03-15 10:12:12.917261+00:00,2,122,,Cheat,0,1,1,0,3,8,7igvdhlu,1,15,153,0,5,1.914285714,1.75,2.0,2.0,1.5,1.75,1.6,3.0,1.5,1.666666667,3.5,1,2,2,0,16,International Business and Social Siences,20,2,18-24,Germany,5,0.625,0.0,0.0,0.5714285714285714,1,1,False,False,False,1,False,framed,0,0,0,0,0,1
6937,5,zo9j0hsi,2021-03-15 10:12:10.857947+00:00,1,57,Don't Control,,0,0,0,1,3,8,7igvdhlu,1,15,153,0,0,2.657142857,2.5,2.666666667,4.333333333,3.0,3.25,2.6,2.0,1.5,2.0,3.0,1,2,1,14,0,"Bionengineering, B.Sc.",3,3,25-34,"Bolivia, Plurinational State of",0,0.0,1.0,0.5714285714285714,0.0,0,0,True,False,False,1,False,framed,1,0,0,0,1,0
3508,6,iyu7t1vc,2021-03-15 10:12:12.917261+00:00,2,138,,Cheat,0,1,1,0,3,9,7igvdhlu,1,15,153,0,6,1.914285714,1.75,2.0,2.0,1.5,1.75,1.6,3.0,1.5,1.666666667,3.5,1,2,2,0,16,International Business and Social Siences,20,2,18-24,Germany,6,0.6666666666666666,0.0,0.0,0.625,1,1,False,False,False,1,False,framed,0,0,0,0,0,1
6938,5,zo9j0hsi,2021-03-15 10:12:10.857947+00:00,1,60,Don't Control,,0,0,0,1,3,9,7igvdhlu,1,15,153,0,0,2.657142857,2.5,2.666666667,4.333333333,3.0,3.25,2.6,2.0,1.5,2.0,3.0,1,2,1,14,0,"Bionengineering, B.Sc.",3,3,25-34,"Bolivia, Plurinational State of",0,0.0,1.0,0.625,0.0,0,0,True,False,False,1,False,framed,1,0,0,0,1,0
3509,6,iyu7t1vc,2021-03-15 10:12:12.917261+00:00,2,154,,Cheat,0,1,1,0,3,10,7igvdhlu,1,15,153,0,7,1.914285714,1.75,2.0,2.0,1.5,1.75,1.6,3.0,1.5,1.666666667,3.5,1,2,2,0,16,International Business and Social Siences,20,2,18-24,Germany,7,0.7,0.0,0.0,0.6666666666666666,1,1,False,False,False,1,False,framed,0,0,0,0,0,1
6939,5,zo9j0hsi,2021-03-15 10:12:10.857947+00:00,1,63,Don't Control,,0,0,0,1,3,10,7igvdhlu,1,15,153,0,0,2.657142857,2.5,2.666666667,4.333333333,3.0,3.25,2.6,2.0,1.5,2.0,3.0,1,2,1,14,0,"Bionengineering, B.Sc.",3,3,25-34,"Bolivia, Plurinational State of",0,0.0,1.0,0.6666666666666666,0.0,0,0,True,False,False,1,False,framed,1,0,0,0,1,0
3510,6,iyu7t1vc,2021-03-15 10:12:12.917261+00:00,2,156,,Cheat,0,1,1,0,3,11,7igvdhlu,1,15,153,0,8,1.914285714,1.75,2.0,2.0,1.5,1.75,1.6,3.0,1.5,1.666666667,3.5,1,2,2,0,16,International Business and Social Siences,20,2,18-24,Germany,8,0.7272727272727273,0.0,0.0,0.7,1,1,False,False,False,1,False,framed,0,0,0,0,0,1
6940,5,zo9j0hsi,2021-03-15 10:12:10.857947+00:00,1,75,Control,,1,0,1,0,3,11,7igvdhlu,1,15,153,1,0,2.657142857,2.5,2.666666667,4.333333333,3.0,3.25,2.6,2.0,1.5,2.0,3.0,1,2,1,11,0,"Bionengineering, B.Sc.",3,3,25-34,"Bolivia, Plurinational State of",1,0.09090909090909091,1.0,0.7,0.0,0,0,True,False,False,1,False,framed,1,0,1,0,1,0
3511,6,iyu7t1vc,2021-03-15 10:12:12.917261+00:00,2,166,,Don't Cheat,0,0,0,1,3,12,7igvdhlu,1,15,153,0,8,1.914285714,1.75,2.0,2.0,1.5,1.75,1.6,3.0,1.5,1.666666667,3.5,1,2,2,0,14,International Business and Social Siences,20,2,18-24,Germany,8,0.6666666666666666,1.0,0.09090909090909091,0.7272727272727273,1,1,False,False,False,1,False,framed,0,1,0,0,0,1
6941,5,zo9j0hsi,2021-03-15 10:12:10.857947+00:00,1,86,Control,,1,0,1,0,3,12,7igvdhlu,1,15,153,2,0,2.657142857,2.5,2.666666667,4.333333333,3.0,3.25,2.6,2.0,1.5,2.0,3.0,1,2,1,11,0,"Bionengineering, B.Sc.",3,3,25-34,"Bolivia, Plurinational State of",2,0.16666666666666666,1.0,0.7272727272727273,0.09090909090909091,0,0,True,False,False,1,False,framed,0,0,0,0,1,0
3512,6,iyu7t1vc,2021-03-15 10:12:12.917261+00:00,2,180,,Don't Cheat,0,0,0,1,3,13,7igvdhlu,1,15,153,0,8,1.914285714,1.75,2.0,2.0,1.5,1.75,1.6,3.0,1.5,1.666666667,3.5,1,2,2,0,14,International Business and Social Siences,20,2,18-24,Germany,8,0.6153846153846154,1.0,0.16666666666666666,0.6666666666666666,1,1,False,False,False,1,False,framed,0,1,0,0,0,1
