participant_id_in_session,participant_code,participant_time_started,player_id,player_total_payoff,player_tax_office_decision,player_company_decision,p1s1,p2s1,s1,s2,group_id_in_subsession,round_number,session_code,framed,dataset,game_id,p1s1_cumulative,p2s1_cumulative,DarkFactor,CRUD,PATHY,EGO,SPITE,MACH,SAD,SCTR,FRUST,NARC,PENT,MDIS,GRE,gender_str,gender,p1_payoff,p2_payoff,degree_str,degree,age,age_str,nationality,s1_cumulative
23,0bmasffv,2021-03-15 10:12:28.759976+00:00,1,11,Control,,1,0,1,0,12,1,7igvdhlu,1,15,1512,1,0,1.742857143,1.25,1.833333333,1.666666667,2,2,1.2,3.5,1.5,1.666666667,2,2,1,Male,1,11,0,Sonstige,22,2,18-24,non disclosed,1
23,0bmasffv,2021-03-15 10:12:28.759976+00:00,1,22,Control,,1,0,1,0,12,2,7igvdhlu,1,15,1512,2,0,1.742857143,1.25,1.833333333,1.666666667,2,2,1.2,3.5,1.5,1.666666667,2,2,1,Male,1,11,0,Sonstige,22,2,18-24,non disclosed,2
23,0bmasffv,2021-03-15 10:12:28.759976+00:00,1,33,Control,,1,0,1,0,12,3,7igvdhlu,1,15,1512,3,0,1.742857143,1.25,1.833333333,1.666666667,2,2,1.2,3.5,1.5,1.666666667,2,2,1,Male,1,11,0,Sonstige,22,2,18-24,non disclosed,3
23,0bmasffv,2021-03-15 10:12:28.759976+00:00,1,44,Control,,1,0,1,0,12,4,7igvdhlu,1,15,1512,4,0,1.742857143,1.25,1.833333333,1.666666667,2,2,1.2,3.5,1.5,1.666666667,2,2,1,Male,1,11,0,Sonstige,22,2,18-24,non disclosed,4
23,0bmasffv,2021-03-15 10:12:28.759976+00:00,1,55,Control,,1,0,1,0,12,5,7igvdhlu,1,15,1512,5,0,1.742857143,1.25,1.833333333,1.666666667,2,2,1.2,3.5,1.5,1.666666667,2,2,1,Male,1,11,0,Sonstige,22,2,18-24,non disclosed,5
23,0bmasffv,2021-03-15 10:12:28.759976+00:00,1,66,Control,,1,0,1,0,12,6,7igvdhlu,1,15,1512,6,0,1.742857143,1.25,1.833333333,1.666666667,2,2,1.2,3.5,1.5,1.666666667,2,2,1,Male,1,11,0,Sonstige,22,2,18-24,non disclosed,6
23,0bmasffv,2021-03-15 10:12:28.759976+00:00,1,77,Control,,1,0,1,0,12,7,7igvdhlu,1,15,1512,7,0,1.742857143,1.25,1.833333333,1.666666667,2,2,1.2,3.5,1.5,1.666666667,2,2,1,Male,1,11,0,Sonstige,22,2,18-24,non disclosed,7
23,0bmasffv,2021-03-15 10:12:28.759976+00:00,1,88,Control,,1,0,1,0,12,8,7igvdhlu,1,15,1512,8,0,1.742857143,1.25,1.833333333,1.666666667,2,2,1.2,3.5,1.5,1.666666667,2,2,1,Male,1,11,0,Sonstige,22,2,18-24,non disclosed,8
23,0bmasffv,2021-03-15 10:12:28.759976+00:00,1,99,Control,,1,0,1,0,12,9,7igvdhlu,1,15,1512,9,0,1.742857143,1.25,1.833333333,1.666666667,2,2,1.2,3.5,1.5,1.666666667,2,2,1,Male,1,11,0,Sonstige,22,2,18-24,non disclosed,9
23,0bmasffv,2021-03-15 10:12:28.759976+00:00,1,110,Control,,1,0,1,0,12,10,7igvdhlu,1,15,1512,10,0,1.742857143,1.25,1.833333333,1.666666667,2,2,1.2,3.5,1.5,1.666666667,2,2,1,Male,1,11,0,Sonstige,22,2,18-24,non disclosed,10
23,0bmasffv,2021-03-15 10:12:28.759976+00:00,1,121,Control,,1,0,1,0,12,11,7igvdhlu,1,15,1512,11,0,1.742857143,1.25,1.833333333,1.666666667,2,2,1.2,3.5,1.5,1.666666667,2,2,1,Male,1,11,0,Sonstige,22,2,18-24,non disclosed,11
23,0bmasffv,2021-03-15 10:12:28.759976+00:00,1,132,Control,,1,0,1,0,12,12,7igvdhlu,1,15,1512,12,0,1.742857143,1.25,1.833333333,1.666666667,2,2,1.2,3.5,1.5,1.666666667,2,2,1,Male,1,11,0,Sonstige,22,2,18-24,non disclosed,12
23,0bmasffv,2021-03-15 10:12:28.759976+00:00,1,143,Control,,1,0,1,0,12,13,7igvdhlu,1,15,1512,13,0,1.742857143,1.25,1.833333333,1.666666667,2,2,1.2,3.5,1.5,1.666666667,2,2,1,Male,1,11,0,Sonstige,22,2,18-24,non disclosed,13
23,0bmasffv,2021-03-15 10:12:28.759976+00:00,1,154,Control,,1,0,1,0,12,14,7igvdhlu,1,15,1512,14,0,1.742857143,1.25,1.833333333,1.666666667,2,2,1.2,3.5,1.5,1.666666667,2,2,1,Male,1,11,0,Sonstige,22,2,18-24,non disclosed,14
23,0bmasffv,2021-03-15 10:12:28.759976+00:00,1,165,Control,,1,0,1,0,12,15,7igvdhlu,1,15,1512,15,0,1.742857143,1.25,1.833333333,1.666666667,2,2,1.2,3.5,1.5,1.666666667,2,2,1,Male,1,11,0,Sonstige,22,2,18-24,non disclosed,15
23,0bmasffv,2021-03-15 10:12:28.759976+00:00,1,176,Control,,1,0,1,0,12,16,7igvdhlu,1,15,1512,16,0,1.742857143,1.25,1.833333333,1.666666667,2,2,1.2,3.5,1.5,1.666666667,2,2,1,Male,1,11,0,Sonstige,22,2,18-24,non disclosed,16
23,0bmasffv,2021-03-15 10:12:28.759976+00:00,1,187,Control,,1,0,1,0,12,17,7igvdhlu,1,15,1512,17,0,1.742857143,1.25,1.833333333,1.666666667,2,2,1.2,3.5,1.5,1.666666667,2,2,1,Male,1,11,0,Sonstige,22,2,18-24,non disclosed,17
23,0bmasffv,2021-03-15 10:12:28.759976+00:00,1,198,Control,,1,0,1,0,12,18,7igvdhlu,1,15,1512,18,0,1.742857143,1.25,1.833333333,1.666666667,2,2,1.2,3.5,1.5,1.666666667,2,2,1,Male,1,11,0,Sonstige,22,2,18-24,non disclosed,18
23,0bmasffv,2021-03-15 10:12:28.759976+00:00,1,209,Control,,1,0,1,0,12,19,7igvdhlu,1,15,1512,19,0,1.742857143,1.25,1.833333333,1.666666667,2,2,1.2,3.5,1.5,1.666666667,2,2,1,Male,1,11,0,Sonstige,22,2,18-24,non disclosed,19
23,0bmasffv,2021-03-15 10:12:28.759976+00:00,1,220,Control,,1,0,1,0,12,20,7igvdhlu,1,15,1512,20,0,1.742857143,1.25,1.833333333,1.666666667,2,2,1.2,3.5,1.5,1.666666667,2,2,1,Male,1,11,0,Sonstige,22,2,18-24,non disclosed,20
23,0bmasffv,2021-03-15 10:12:28.759976+00:00,1,231,Control,,1,0,1,0,12,21,7igvdhlu,1,15,1512,21,0,1.742857143,1.25,1.833333333,1.666666667,2,2,1.2,3.5,1.5,1.666666667,2,2,1,Male,1,11,0,Sonstige,22,2,18-24,non disclosed,21
23,0bmasffv,2021-03-15 10:12:28.759976+00:00,1,245,Don't Control,,0,0,0,1,12,22,7igvdhlu,1,15,1512,21,0,1.742857143,1.25,1.833333333,1.666666667,2,2,1.2,3.5,1.5,1.666666667,2,2,1,Male,1,14,0,Sonstige,22,2,18-24,non disclosed,21
23,0bmasffv,2021-03-15 10:12:28.759976+00:00,1,256,Control,,1,0,1,0,12,23,7igvdhlu,1,15,1512,22,0,1.742857143,1.25,1.833333333,1.666666667,2,2,1.2,3.5,1.5,1.666666667,2,2,1,Male,1,11,0,Sonstige,22,2,18-24,non disclosed,22
23,0bmasffv,2021-03-15 10:12:28.759976+00:00,1,270,Don't Control,,0,0,0,1,12,24,7igvdhlu,1,15,1512,22,0,1.742857143,1.25,1.833333333,1.666666667,2,2,1.2,3.5,1.5,1.666666667,2,2,1,Male,1,14,0,Sonstige,22,2,18-24,non disclosed,22
23,0bmasffv,2021-03-15 10:12:28.759976+00:00,1,284,Don't Control,,0,0,0,1,12,25,7igvdhlu,1,15,1512,22,0,1.742857143,1.25,1.833333333,1.666666667,2,2,1.2,3.5,1.5,1.666666667,2,2,1,Male,1,14,0,Sonstige,22,2,18-24,non disclosed,22
23,0bmasffv,2021-03-15 10:12:28.759976+00:00,1,295,Control,,1,0,1,0,12,26,7igvdhlu,1,15,1512,23,0,1.742857143,1.25,1.833333333,1.666666667,2,2,1.2,3.5,1.5,1.666666667,2,2,1,Male,1,11,0,Sonstige,22,2,18-24,non disclosed,23
23,0bmasffv,2021-03-15 10:12:28.759976+00:00,1,309,Don't Control,,0,0,0,1,12,27,7igvdhlu,1,15,1512,23,0,1.742857143,1.25,1.833333333,1.666666667,2,2,1.2,3.5,1.5,1.666666667,2,2,1,Male,1,14,0,Sonstige,22,2,18-24,non disclosed,23
23,0bmasffv,2021-03-15 10:12:28.759976+00:00,1,323,Don't Control,,0,0,0,1,12,28,7igvdhlu,1,15,1512,23,0,1.742857143,1.25,1.833333333,1.666666667,2,2,1.2,3.5,1.5,1.666666667,2,2,1,Male,1,14,0,Sonstige,22,2,18-24,non disclosed,23
23,0bmasffv,2021-03-15 10:12:28.759976+00:00,1,334,Control,,1,0,1,0,12,29,7igvdhlu,1,15,1512,24,0,1.742857143,1.25,1.833333333,1.666666667,2,2,1.2,3.5,1.5,1.666666667,2,2,1,Male,1,11,0,Sonstige,22,2,18-24,non disclosed,24
23,0bmasffv,2021-03-15 10:12:28.759976+00:00,1,345,Control,,1,0,1,0,12,30,7igvdhlu,1,15,1512,25,0,1.742857143,1.25,1.833333333,1.666666667,2,2,1.2,3.5,1.5,1.666666667,2,2,1,Male,1,11,0,Sonstige,22,2,18-24,non disclosed,25
23,0bmasffv,2021-03-15 10:12:28.759976+00:00,1,356,Control,,1,0,1,0,12,31,7igvdhlu,1,15,1512,26,0,1.742857143,1.25,1.833333333,1.666666667,2,2,1.2,3.5,1.5,1.666666667,2,2,1,Male,1,11,0,Sonstige,22,2,18-24,non disclosed,26
23,0bmasffv,2021-03-15 10:12:28.759976+00:00,1,370,Don't Control,,0,0,0,1,12,32,7igvdhlu,1,15,1512,26,0,1.742857143,1.25,1.833333333,1.666666667,2,2,1.2,3.5,1.5,1.666666667,2,2,1,Male,1,14,0,Sonstige,22,2,18-24,non disclosed,26
23,0bmasffv,2021-03-15 10:12:28.759976+00:00,1,384,Don't Control,,0,0,0,1,12,33,7igvdhlu,1,15,1512,26,0,1.742857143,1.25,1.833333333,1.666666667,2,2,1.2,3.5,1.5,1.666666667,2,2,1,Male,1,14,0,Sonstige,22,2,18-24,non disclosed,26
23,0bmasffv,2021-03-15 10:12:28.759976+00:00,1,398,Don't Control,,0,0,0,1,12,34,7igvdhlu,1,15,1512,26,0,1.742857143,1.25,1.833333333,1.666666667,2,2,1.2,3.5,1.5,1.666666667,2,2,1,Male,1,14,0,Sonstige,22,2,18-24,non disclosed,26
23,0bmasffv,2021-03-15 10:12:28.759976+00:00,1,412,Don't Control,,0,0,0,1,12,35,7igvdhlu,1,15,1512,26,0,1.742857143,1.25,1.833333333,1.666666667,2,2,1.2,3.5,1.5,1.666666667,2,2,1,Male,1,14,0,Sonstige,22,2,18-24,non disclosed,26
23,0bmasffv,2021-03-15 10:12:28.759976+00:00,1,426,Don't Control,,0,0,0,1,12,36,7igvdhlu,1,15,1512,26,0,1.742857143,1.25,1.833333333,1.666666667,2,2,1.2,3.5,1.5,1.666666667,2,2,1,Male,1,14,0,Sonstige,22,2,18-24,non disclosed,26
23,0bmasffv,2021-03-15 10:12:28.759976+00:00,1,440,Don't Control,,0,0,0,1,12,37,7igvdhlu,1,15,1512,26,0,1.742857143,1.25,1.833333333,1.666666667,2,2,1.2,3.5,1.5,1.666666667,2,2,1,Male,1,14,0,Sonstige,22,2,18-24,non disclosed,26
23,0bmasffv,2021-03-15 10:12:28.759976+00:00,1,454,Don't Control,,0,0,0,1,12,38,7igvdhlu,1,15,1512,26,0,1.742857143,1.25,1.833333333,1.666666667,2,2,1.2,3.5,1.5,1.666666667,2,2,1,Male,1,14,0,Sonstige,22,2,18-24,non disclosed,26
23,0bmasffv,2021-03-15 10:12:28.759976+00:00,1,468,Don't Control,,0,0,0,1,12,39,7igvdhlu,1,15,1512,26,0,1.742857143,1.25,1.833333333,1.666666667,2,2,1.2,3.5,1.5,1.666666667,2,2,1,Male,1,14,0,Sonstige,22,2,18-24,non disclosed,26
23,0bmasffv,2021-03-15 10:12:28.759976+00:00,1,482,Don't Control,,0,0,0,1,12,40,7igvdhlu,1,15,1512,26,0,1.742857143,1.25,1.833333333,1.666666667,2,2,1.2,3.5,1.5,1.666666667,2,2,1,Male,1,14,0,Sonstige,22,2,18-24,non disclosed,26
23,0bmasffv,2021-03-15 10:12:28.759976+00:00,1,493,Control,,1,0,1,0,12,41,7igvdhlu,1,15,1512,27,0,1.742857143,1.25,1.833333333,1.666666667,2,2,1.2,3.5,1.5,1.666666667,2,2,1,Male,1,11,0,Sonstige,22,2,18-24,non disclosed,27
23,0bmasffv,2021-03-15 10:12:28.759976+00:00,1,507,Don't Control,,0,0,0,1,12,42,7igvdhlu,1,15,1512,27,0,1.742857143,1.25,1.833333333,1.666666667,2,2,1.2,3.5,1.5,1.666666667,2,2,1,Male,1,14,0,Sonstige,22,2,18-24,non disclosed,27
23,0bmasffv,2021-03-15 10:12:28.759976+00:00,1,518,Control,,1,0,1,0,12,43,7igvdhlu,1,15,1512,28,0,1.742857143,1.25,1.833333333,1.666666667,2,2,1.2,3.5,1.5,1.666666667,2,2,1,Male,1,11,0,Sonstige,22,2,18-24,non disclosed,28
23,0bmasffv,2021-03-15 10:12:28.759976+00:00,1,532,Don't Control,,0,0,0,1,12,44,7igvdhlu,1,15,1512,28,0,1.742857143,1.25,1.833333333,1.666666667,2,2,1.2,3.5,1.5,1.666666667,2,2,1,Male,1,14,0,Sonstige,22,2,18-24,non disclosed,28
23,0bmasffv,2021-03-15 10:12:28.759976+00:00,1,543,Control,,1,0,1,0,12,45,7igvdhlu,1,15,1512,29,0,1.742857143,1.25,1.833333333,1.666666667,2,2,1.2,3.5,1.5,1.666666667,2,2,1,Male,1,11,0,Sonstige,22,2,18-24,non disclosed,29
23,0bmasffv,2021-03-15 10:12:28.759976+00:00,1,554,Control,,1,0,1,0,12,46,7igvdhlu,1,15,1512,30,0,1.742857143,1.25,1.833333333,1.666666667,2,2,1.2,3.5,1.5,1.666666667,2,2,1,Male,1,11,0,Sonstige,22,2,18-24,non disclosed,30
23,0bmasffv,2021-03-15 10:12:28.759976+00:00,1,565,Control,,1,0,1,0,12,47,7igvdhlu,1,15,1512,31,0,1.742857143,1.25,1.833333333,1.666666667,2,2,1.2,3.5,1.5,1.666666667,2,2,1,Male,1,11,0,Sonstige,22,2,18-24,non disclosed,31
23,0bmasffv,2021-03-15 10:12:28.759976+00:00,1,579,Don't Control,,0,0,0,1,12,48,7igvdhlu,1,15,1512,31,0,1.742857143,1.25,1.833333333,1.666666667,2,2,1.2,3.5,1.5,1.666666667,2,2,1,Male,1,14,0,Sonstige,22,2,18-24,non disclosed,31
23,0bmasffv,2021-03-15 10:12:28.759976+00:00,1,593,Don't Control,,0,0,0,1,12,49,7igvdhlu,1,15,1512,31,0,1.742857143,1.25,1.833333333,1.666666667,2,2,1.2,3.5,1.5,1.666666667,2,2,1,Male,1,14,0,Sonstige,22,2,18-24,non disclosed,31
23,0bmasffv,2021-03-15 10:12:28.759976+00:00,1,607,Don't Control,,0,0,0,1,12,50,7igvdhlu,1,15,1512,31,0,1.742857143,1.25,1.833333333,1.666666667,2,2,1.2,3.5,1.5,1.666666667,2,2,1,Male,1,14,0,Sonstige,22,2,18-24,non disclosed,31
23,0bmasffv,2021-03-15 10:12:28.759976+00:00,1,621,Don't Control,,0,0,0,1,12,51,7igvdhlu,1,15,1512,31,0,1.742857143,1.25,1.833333333,1.666666667,2,2,1.2,3.5,1.5,1.666666667,2,2,1,Male,1,14,0,Sonstige,22,2,18-24,non disclosed,31
23,0bmasffv,2021-03-15 10:12:28.759976+00:00,1,635,Don't Control,,0,0,0,1,12,52,7igvdhlu,1,15,1512,31,0,1.742857143,1.25,1.833333333,1.666666667,2,2,1.2,3.5,1.5,1.666666667,2,2,1,Male,1,14,0,Sonstige,22,2,18-24,non disclosed,31
23,0bmasffv,2021-03-15 10:12:28.759976+00:00,1,649,Don't Control,,0,0,0,1,12,53,7igvdhlu,1,15,1512,31,0,1.742857143,1.25,1.833333333,1.666666667,2,2,1.2,3.5,1.5,1.666666667,2,2,1,Male,1,14,0,Sonstige,22,2,18-24,non disclosed,31
23,0bmasffv,2021-03-15 10:12:28.759976+00:00,1,663,Don't Control,,0,0,0,1,12,54,7igvdhlu,1,15,1512,31,0,1.742857143,1.25,1.833333333,1.666666667,2,2,1.2,3.5,1.5,1.666666667,2,2,1,Male,1,14,0,Sonstige,22,2,18-24,non disclosed,31
23,0bmasffv,2021-03-15 10:12:28.759976+00:00,1,677,Don't Control,,0,0,0,1,12,55,7igvdhlu,1,15,1512,31,0,1.742857143,1.25,1.833333333,1.666666667,2,2,1.2,3.5,1.5,1.666666667,2,2,1,Male,1,14,0,Sonstige,22,2,18-24,non disclosed,31
23,0bmasffv,2021-03-15 10:12:28.759976+00:00,1,691,Don't Control,,0,0,0,1,12,56,7igvdhlu,1,15,1512,31,0,1.742857143,1.25,1.833333333,1.666666667,2,2,1.2,3.5,1.5,1.666666667,2,2,1,Male,1,14,0,Sonstige,22,2,18-24,non disclosed,31
23,0bmasffv,2021-03-15 10:12:28.759976+00:00,1,705,Don't Control,,0,0,0,1,12,57,7igvdhlu,1,15,1512,31,0,1.742857143,1.25,1.833333333,1.666666667,2,2,1.2,3.5,1.5,1.666666667,2,2,1,Male,1,14,0,Sonstige,22,2,18-24,non disclosed,31
23,0bmasffv,2021-03-15 10:12:28.759976+00:00,1,719,Don't Control,,0,0,0,1,12,58,7igvdhlu,1,15,1512,31,0,1.742857143,1.25,1.833333333,1.666666667,2,2,1.2,3.5,1.5,1.666666667,2,2,1,Male,1,14,0,Sonstige,22,2,18-24,non disclosed,31
23,0bmasffv,2021-03-15 10:12:28.759976+00:00,1,733,Don't Control,,0,0,0,1,12,59,7igvdhlu,1,15,1512,31,0,1.742857143,1.25,1.833333333,1.666666667,2,2,1.2,3.5,1.5,1.666666667,2,2,1,Male,1,14,0,Sonstige,22,2,18-24,non disclosed,31
23,0bmasffv,2021-03-15 10:12:28.759976+00:00,1,747,Don't Control,,0,0,0,1,12,60,7igvdhlu,1,15,1512,31,0,1.742857143,1.25,1.833333333,1.666666667,2,2,1.2,3.5,1.5,1.666666667,2,2,1,Male,1,14,0,Sonstige,22,2,18-24,non disclosed,31
23,0bmasffv,2021-03-15 10:12:28.759976+00:00,1,761,Don't Control,,0,0,0,1,12,61,7igvdhlu,1,15,1512,31,0,1.742857143,1.25,1.833333333,1.666666667,2,2,1.2,3.5,1.5,1.666666667,2,2,1,Male,1,14,0,Sonstige,22,2,18-24,non disclosed,31
23,0bmasffv,2021-03-15 10:12:28.759976+00:00,1,775,Don't Control,,0,0,0,1,12,62,7igvdhlu,1,15,1512,31,0,1.742857143,1.25,1.833333333,1.666666667,2,2,1.2,3.5,1.5,1.666666667,2,2,1,Male,1,14,0,Sonstige,22,2,18-24,non disclosed,31
23,0bmasffv,2021-03-15 10:12:28.759976+00:00,1,789,Don't Control,,0,0,0,1,12,63,7igvdhlu,1,15,1512,31,0,1.742857143,1.25,1.833333333,1.666666667,2,2,1.2,3.5,1.5,1.666666667,2,2,1,Male,1,14,0,Sonstige,22,2,18-24,non disclosed,31
23,0bmasffv,2021-03-15 10:12:28.759976+00:00,1,803,Don't Control,,0,0,0,1,12,64,7igvdhlu,1,15,1512,31,0,1.742857143,1.25,1.833333333,1.666666667,2,2,1.2,3.5,1.5,1.666666667,2,2,1,Male,1,14,0,Sonstige,22,2,18-24,non disclosed,31
23,0bmasffv,2021-03-15 10:12:28.759976+00:00,1,814,Control,,1,0,1,0,12,65,7igvdhlu,1,15,1512,32,0,1.742857143,1.25,1.833333333,1.666666667,2,2,1.2,3.5,1.5,1.666666667,2,2,1,Male,1,11,0,Sonstige,22,2,18-24,non disclosed,32
23,0bmasffv,2021-03-15 10:12:28.759976+00:00,1,825,Control,,1,0,1,0,12,66,7igvdhlu,1,15,1512,33,0,1.742857143,1.25,1.833333333,1.666666667,2,2,1.2,3.5,1.5,1.666666667,2,2,1,Male,1,11,0,Sonstige,22,2,18-24,non disclosed,33
23,0bmasffv,2021-03-15 10:12:28.759976+00:00,1,839,Don't Control,,0,0,0,1,12,67,7igvdhlu,1,15,1512,33,0,1.742857143,1.25,1.833333333,1.666666667,2,2,1.2,3.5,1.5,1.666666667,2,2,1,Male,1,14,0,Sonstige,22,2,18-24,non disclosed,33
23,0bmasffv,2021-03-15 10:12:28.759976+00:00,1,853,Don't Control,,0,0,0,1,12,68,7igvdhlu,1,15,1512,33,0,1.742857143,1.25,1.833333333,1.666666667,2,2,1.2,3.5,1.5,1.666666667,2,2,1,Male,1,14,0,Sonstige,22,2,18-24,non disclosed,33
23,0bmasffv,2021-03-15 10:12:28.759976+00:00,1,867,Don't Control,,0,0,0,1,12,69,7igvdhlu,1,15,1512,33,0,1.742857143,1.25,1.833333333,1.666666667,2,2,1.2,3.5,1.5,1.666666667,2,2,1,Male,1,14,0,Sonstige,22,2,18-24,non disclosed,33
23,0bmasffv,2021-03-15 10:12:28.759976+00:00,1,881,Don't Control,,0,0,0,1,12,70,7igvdhlu,1,15,1512,33,0,1.742857143,1.25,1.833333333,1.666666667,2,2,1.2,3.5,1.5,1.666666667,2,2,1,Male,1,14,0,Sonstige,22,2,18-24,non disclosed,33
28,0xwx0wrp,2021-03-17 10:12:15.455722+00:00,2,10,,Don't Cheat,0,0,0,1,14,1,g7q3gnch,0,17,1714,0,0,2.457142857,2,2.166666667,1.666666667,3.5,2.75,2.6,1.5,2.5,3,3,3,3,Female,2,0,14,"Biological Resources, M.Sc.",1,2,18-24,Nepal,0
28,0xwx0wrp,2021-03-17 10:12:15.455722+00:00,2,20,,Don't Cheat,0,0,0,1,14,2,g7q3gnch,0,17,1714,0,0,2.457142857,2,2.166666667,1.666666667,3.5,2.75,2.6,1.5,2.5,3,3,3,3,Female,2,0,14,"Biological Resources, M.Sc.",1,2,18-24,Nepal,0
28,0xwx0wrp,2021-03-17 10:12:15.455722+00:00,2,36,,Cheat,0,1,1,0,14,3,g7q3gnch,0,17,1714,0,1,2.457142857,2,2.166666667,1.666666667,3.5,2.75,2.6,1.5,2.5,3,3,3,3,Female,2,0,16,"Biological Resources, M.Sc.",1,2,18-24,Nepal,1
28,0xwx0wrp,2021-03-17 10:12:15.455722+00:00,2,50,,Don't Cheat,0,0,0,1,14,4,g7q3gnch,0,17,1714,0,1,2.457142857,2,2.166666667,1.666666667,3.5,2.75,2.6,1.5,2.5,3,3,3,3,Female,2,0,14,"Biological Resources, M.Sc.",1,2,18-24,Nepal,1
28,0xwx0wrp,2021-03-17 10:12:15.455722+00:00,2,66,,Cheat,0,1,1,0,14,5,g7q3gnch,0,17,1714,0,2,2.457142857,2,2.166666667,1.666666667,3.5,2.75,2.6,1.5,2.5,3,3,3,3,Female,2,0,16,"Biological Resources, M.Sc.",1,2,18-24,Nepal,2
28,0xwx0wrp,2021-03-17 10:12:15.455722+00:00,2,76,,Don't Cheat,0,0,0,1,14,6,g7q3gnch,0,17,1714,0,2,2.457142857,2,2.166666667,1.666666667,3.5,2.75,2.6,1.5,2.5,3,3,3,3,Female,2,0,14,"Biological Resources, M.Sc.",1,2,18-24,Nepal,2
28,0xwx0wrp,2021-03-17 10:12:15.455722+00:00,2,78,,Cheat,0,1,1,0,14,7,g7q3gnch,0,17,1714,0,3,2.457142857,2,2.166666667,1.666666667,3.5,2.75,2.6,1.5,2.5,3,3,3,3,Female,2,0,16,"Biological Resources, M.Sc.",1,2,18-24,Nepal,3
28,0xwx0wrp,2021-03-17 10:12:15.455722+00:00,2,88,,Don't Cheat,0,0,0,1,14,8,g7q3gnch,0,17,1714,0,3,2.457142857,2,2.166666667,1.666666667,3.5,2.75,2.6,1.5,2.5,3,3,3,3,Female,2,0,14,"Biological Resources, M.Sc.",1,2,18-24,Nepal,3
28,0xwx0wrp,2021-03-17 10:12:15.455722+00:00,2,98,,Don't Cheat,0,0,0,1,14,9,g7q3gnch,0,17,1714,0,3,2.457142857,2,2.166666667,1.666666667,3.5,2.75,2.6,1.5,2.5,3,3,3,3,Female,2,0,14,"Biological Resources, M.Sc.",1,2,18-24,Nepal,3
28,0xwx0wrp,2021-03-17 10:12:15.455722+00:00,2,112,,Don't Cheat,0,0,0,1,14,10,g7q3gnch,0,17,1714,0,3,2.457142857,2,2.166666667,1.666666667,3.5,2.75,2.6,1.5,2.5,3,3,3,3,Female,2,0,14,"Biological Resources, M.Sc.",1,2,18-24,Nepal,3
28,0xwx0wrp,2021-03-17 10:12:15.455722+00:00,2,128,,Cheat,0,1,1,0,14,11,g7q3gnch,0,17,1714,0,4,2.457142857,2,2.166666667,1.666666667,3.5,2.75,2.6,1.5,2.5,3,3,3,3,Female,2,0,16,"Biological Resources, M.Sc.",1,2,18-24,Nepal,4
28,0xwx0wrp,2021-03-17 10:12:15.455722+00:00,2,130,,Cheat,0,1,1,0,14,12,g7q3gnch,0,17,1714,0,5,2.457142857,2,2.166666667,1.666666667,3.5,2.75,2.6,1.5,2.5,3,3,3,3,Female,2,0,16,"Biological Resources, M.Sc.",1,2,18-24,Nepal,5
28,0xwx0wrp,2021-03-17 10:12:15.455722+00:00,2,140,,Don't Cheat,0,0,0,1,14,13,g7q3gnch,0,17,1714,0,5,2.457142857,2,2.166666667,1.666666667,3.5,2.75,2.6,1.5,2.5,3,3,3,3,Female,2,0,14,"Biological Resources, M.Sc.",1,2,18-24,Nepal,5
28,0xwx0wrp,2021-03-17 10:12:15.455722+00:00,2,142,,Cheat,0,1,1,0,14,14,g7q3gnch,0,17,1714,0,6,2.457142857,2,2.166666667,1.666666667,3.5,2.75,2.6,1.5,2.5,3,3,3,3,Female,2,0,16,"Biological Resources, M.Sc.",1,2,18-24,Nepal,6
28,0xwx0wrp,2021-03-17 10:12:15.455722+00:00,2,144,,Cheat,0,1,1,0,14,15,g7q3gnch,0,17,1714,0,7,2.457142857,2,2.166666667,1.666666667,3.5,2.75,2.6,1.5,2.5,3,3,3,3,Female,2,0,16,"Biological Resources, M.Sc.",1,2,18-24,Nepal,7
28,0xwx0wrp,2021-03-17 10:12:15.455722+00:00,2,154,,Don't Cheat,0,0,0,1,14,16,g7q3gnch,0,17,1714,0,7,2.457142857,2,2.166666667,1.666666667,3.5,2.75,2.6,1.5,2.5,3,3,3,3,Female,2,0,14,"Biological Resources, M.Sc.",1,2,18-24,Nepal,7
28,0xwx0wrp,2021-03-17 10:12:15.455722+00:00,2,164,,Don't Cheat,0,0,0,1,14,17,g7q3gnch,0,17,1714,0,7,2.457142857,2,2.166666667,1.666666667,3.5,2.75,2.6,1.5,2.5,3,3,3,3,Female,2,0,14,"Biological Resources, M.Sc.",1,2,18-24,Nepal,7
28,0xwx0wrp,2021-03-17 10:12:15.455722+00:00,2,174,,Don't Cheat,0,0,0,1,14,18,g7q3gnch,0,17,1714,0,7,2.457142857,2,2.166666667,1.666666667,3.5,2.75,2.6,1.5,2.5,3,3,3,3,Female,2,0,14,"Biological Resources, M.Sc.",1,2,18-24,Nepal,7
28,0xwx0wrp,2021-03-17 10:12:15.455722+00:00,2,190,,Cheat,0,1,1,0,14,19,g7q3gnch,0,17,1714,0,8,2.457142857,2,2.166666667,1.666666667,3.5,2.75,2.6,1.5,2.5,3,3,3,3,Female,2,0,16,"Biological Resources, M.Sc.",1,2,18-24,Nepal,8
28,0xwx0wrp,2021-03-17 10:12:15.455722+00:00,2,192,,Cheat,0,1,1,0,14,20,g7q3gnch,0,17,1714,0,9,2.457142857,2,2.166666667,1.666666667,3.5,2.75,2.6,1.5,2.5,3,3,3,3,Female,2,0,16,"Biological Resources, M.Sc.",1,2,18-24,Nepal,9
28,0xwx0wrp,2021-03-17 10:12:15.455722+00:00,2,194,,Cheat,0,1,1,0,14,21,g7q3gnch,0,17,1714,0,10,2.457142857,2,2.166666667,1.666666667,3.5,2.75,2.6,1.5,2.5,3,3,3,3,Female,2,0,16,"Biological Resources, M.Sc.",1,2,18-24,Nepal,10
28,0xwx0wrp,2021-03-17 10:12:15.455722+00:00,2,204,,Don't Cheat,0,0,0,1,14,22,g7q3gnch,0,17,1714,0,10,2.457142857,2,2.166666667,1.666666667,3.5,2.75,2.6,1.5,2.5,3,3,3,3,Female,2,0,14,"Biological Resources, M.Sc.",1,2,18-24,Nepal,10
28,0xwx0wrp,2021-03-17 10:12:15.455722+00:00,2,206,,Cheat,0,1,1,0,14,23,g7q3gnch,0,17,1714,0,11,2.457142857,2,2.166666667,1.666666667,3.5,2.75,2.6,1.5,2.5,3,3,3,3,Female,2,0,16,"Biological Resources, M.Sc.",1,2,18-24,Nepal,11
28,0xwx0wrp,2021-03-17 10:12:15.455722+00:00,2,216,,Don't Cheat,0,0,0,1,14,24,g7q3gnch,0,17,1714,0,11,2.457142857,2,2.166666667,1.666666667,3.5,2.75,2.6,1.5,2.5,3,3,3,3,Female,2,0,14,"Biological Resources, M.Sc.",1,2,18-24,Nepal,11
28,0xwx0wrp,2021-03-17 10:12:15.455722+00:00,2,226,,Don't Cheat,0,0,0,1,14,25,g7q3gnch,0,17,1714,0,11,2.457142857,2,2.166666667,1.666666667,3.5,2.75,2.6,1.5,2.5,3,3,3,3,Female,2,0,14,"Biological Resources, M.Sc.",1,2,18-24,Nepal,11
28,0xwx0wrp,2021-03-17 10:12:15.455722+00:00,2,228,,Cheat,0,1,1,0,14,26,g7q3gnch,0,17,1714,0,12,2.457142857,2,2.166666667,1.666666667,3.5,2.75,2.6,1.5,2.5,3,3,3,3,Female,2,0,16,"Biological Resources, M.Sc.",1,2,18-24,Nepal,12
28,0xwx0wrp,2021-03-17 10:12:15.455722+00:00,2,230,,Cheat,0,1,1,0,14,27,g7q3gnch,0,17,1714,0,13,2.457142857,2,2.166666667,1.666666667,3.5,2.75,2.6,1.5,2.5,3,3,3,3,Female,2,0,16,"Biological Resources, M.Sc.",1,2,18-24,Nepal,13
28,0xwx0wrp,2021-03-17 10:12:15.455722+00:00,2,232,,Cheat,0,1,1,0,14,28,g7q3gnch,0,17,1714,0,14,2.457142857,2,2.166666667,1.666666667,3.5,2.75,2.6,1.5,2.5,3,3,3,3,Female,2,0,16,"Biological Resources, M.Sc.",1,2,18-24,Nepal,14
28,0xwx0wrp,2021-03-17 10:12:15.455722+00:00,2,242,,Don't Cheat,0,0,0,1,14,29,g7q3gnch,0,17,1714,0,14,2.457142857,2,2.166666667,1.666666667,3.5,2.75,2.6,1.5,2.5,3,3,3,3,Female,2,0,14,"Biological Resources, M.Sc.",1,2,18-24,Nepal,14
28,0xwx0wrp,2021-03-17 10:12:15.455722+00:00,2,244,,Cheat,0,1,1,0,14,30,g7q3gnch,0,17,1714,0,15,2.457142857,2,2.166666667,1.666666667,3.5,2.75,2.6,1.5,2.5,3,3,3,3,Female,2,0,16,"Biological Resources, M.Sc.",1,2,18-24,Nepal,15
28,0xwx0wrp,2021-03-17 10:12:15.455722+00:00,2,246,,Cheat,0,1,1,0,14,31,g7q3gnch,0,17,1714,0,16,2.457142857,2,2.166666667,1.666666667,3.5,2.75,2.6,1.5,2.5,3,3,3,3,Female,2,0,16,"Biological Resources, M.Sc.",1,2,18-24,Nepal,16
28,0xwx0wrp,2021-03-17 10:12:15.455722+00:00,2,256,,Don't Cheat,0,0,0,1,14,32,g7q3gnch,0,17,1714,0,16,2.457142857,2,2.166666667,1.666666667,3.5,2.75,2.6,1.5,2.5,3,3,3,3,Female,2,0,14,"Biological Resources, M.Sc.",1,2,18-24,Nepal,16
28,0xwx0wrp,2021-03-17 10:12:15.455722+00:00,2,266,,Don't Cheat,0,0,0,1,14,33,g7q3gnch,0,17,1714,0,16,2.457142857,2,2.166666667,1.666666667,3.5,2.75,2.6,1.5,2.5,3,3,3,3,Female,2,0,14,"Biological Resources, M.Sc.",1,2,18-24,Nepal,16
28,0xwx0wrp,2021-03-17 10:12:15.455722+00:00,2,276,,Don't Cheat,0,0,0,1,14,34,g7q3gnch,0,17,1714,0,16,2.457142857,2,2.166666667,1.666666667,3.5,2.75,2.6,1.5,2.5,3,3,3,3,Female,2,0,14,"Biological Resources, M.Sc.",1,2,18-24,Nepal,16
28,0xwx0wrp,2021-03-17 10:12:15.455722+00:00,2,290,,Don't Cheat,0,0,0,1,14,35,g7q3gnch,0,17,1714,0,16,2.457142857,2,2.166666667,1.666666667,3.5,2.75,2.6,1.5,2.5,3,3,3,3,Female,2,0,14,"Biological Resources, M.Sc.",1,2,18-24,Nepal,16
28,0xwx0wrp,2021-03-17 10:12:15.455722+00:00,2,304,,Don't Cheat,0,0,0,1,14,36,g7q3gnch,0,17,1714,0,16,2.457142857,2,2.166666667,1.666666667,3.5,2.75,2.6,1.5,2.5,3,3,3,3,Female,2,0,14,"Biological Resources, M.Sc.",1,2,18-24,Nepal,16
28,0xwx0wrp,2021-03-17 10:12:15.455722+00:00,2,318,,Don't Cheat,0,0,0,1,14,37,g7q3gnch,0,17,1714,0,16,2.457142857,2,2.166666667,1.666666667,3.5,2.75,2.6,1.5,2.5,3,3,3,3,Female,2,0,14,"Biological Resources, M.Sc.",1,2,18-24,Nepal,16
28,0xwx0wrp,2021-03-17 10:12:15.455722+00:00,2,334,,Cheat,0,1,1,0,14,38,g7q3gnch,0,17,1714,0,17,2.457142857,2,2.166666667,1.666666667,3.5,2.75,2.6,1.5,2.5,3,3,3,3,Female,2,0,16,"Biological Resources, M.Sc.",1,2,18-24,Nepal,17
28,0xwx0wrp,2021-03-17 10:12:15.455722+00:00,2,336,,Cheat,0,1,1,0,14,39,g7q3gnch,0,17,1714,0,18,2.457142857,2,2.166666667,1.666666667,3.5,2.75,2.6,1.5,2.5,3,3,3,3,Female,2,0,16,"Biological Resources, M.Sc.",1,2,18-24,Nepal,18
28,0xwx0wrp,2021-03-17 10:12:15.455722+00:00,2,338,,Cheat,0,1,1,0,14,40,g7q3gnch,0,17,1714,0,19,2.457142857,2,2.166666667,1.666666667,3.5,2.75,2.6,1.5,2.5,3,3,3,3,Female,2,0,16,"Biological Resources, M.Sc.",1,2,18-24,Nepal,19
28,0xwx0wrp,2021-03-17 10:12:15.455722+00:00,2,340,,Cheat,0,1,1,0,14,41,g7q3gnch,0,17,1714,0,20,2.457142857,2,2.166666667,1.666666667,3.5,2.75,2.6,1.5,2.5,3,3,3,3,Female,2,0,16,"Biological Resources, M.Sc.",1,2,18-24,Nepal,20
28,0xwx0wrp,2021-03-17 10:12:15.455722+00:00,2,350,,Don't Cheat,0,0,0,1,14,42,g7q3gnch,0,17,1714,0,20,2.457142857,2,2.166666667,1.666666667,3.5,2.75,2.6,1.5,2.5,3,3,3,3,Female,2,0,14,"Biological Resources, M.Sc.",1,2,18-24,Nepal,20
28,0xwx0wrp,2021-03-17 10:12:15.455722+00:00,2,360,,Don't Cheat,0,0,0,1,14,43,g7q3gnch,0,17,1714,0,20,2.457142857,2,2.166666667,1.666666667,3.5,2.75,2.6,1.5,2.5,3,3,3,3,Female,2,0,14,"Biological Resources, M.Sc.",1,2,18-24,Nepal,20
28,0xwx0wrp,2021-03-17 10:12:15.455722+00:00,2,362,,Cheat,0,1,1,0,14,44,g7q3gnch,0,17,1714,0,21,2.457142857,2,2.166666667,1.666666667,3.5,2.75,2.6,1.5,2.5,3,3,3,3,Female,2,0,16,"Biological Resources, M.Sc.",1,2,18-24,Nepal,21
28,0xwx0wrp,2021-03-17 10:12:15.455722+00:00,2,364,,Cheat,0,1,1,0,14,45,g7q3gnch,0,17,1714,0,22,2.457142857,2,2.166666667,1.666666667,3.5,2.75,2.6,1.5,2.5,3,3,3,3,Female,2,0,16,"Biological Resources, M.Sc.",1,2,18-24,Nepal,22
28,0xwx0wrp,2021-03-17 10:12:15.455722+00:00,2,374,,Don't Cheat,0,0,0,1,14,46,g7q3gnch,0,17,1714,0,22,2.457142857,2,2.166666667,1.666666667,3.5,2.75,2.6,1.5,2.5,3,3,3,3,Female,2,0,14,"Biological Resources, M.Sc.",1,2,18-24,Nepal,22
28,0xwx0wrp,2021-03-17 10:12:15.455722+00:00,2,384,,Don't Cheat,0,0,0,1,14,47,g7q3gnch,0,17,1714,0,22,2.457142857,2,2.166666667,1.666666667,3.5,2.75,2.6,1.5,2.5,3,3,3,3,Female,2,0,14,"Biological Resources, M.Sc.",1,2,18-24,Nepal,22
28,0xwx0wrp,2021-03-17 10:12:15.455722+00:00,2,394,,Don't Cheat,0,0,0,1,14,48,g7q3gnch,0,17,1714,0,22,2.457142857,2,2.166666667,1.666666667,3.5,2.75,2.6,1.5,2.5,3,3,3,3,Female,2,0,14,"Biological Resources, M.Sc.",1,2,18-24,Nepal,22
28,0xwx0wrp,2021-03-17 10:12:15.455722+00:00,2,408,,Don't Cheat,0,0,0,1,14,49,g7q3gnch,0,17,1714,0,22,2.457142857,2,2.166666667,1.666666667,3.5,2.75,2.6,1.5,2.5,3,3,3,3,Female,2,0,14,"Biological Resources, M.Sc.",1,2,18-24,Nepal,22
28,0xwx0wrp,2021-03-17 10:12:15.455722+00:00,2,424,,Cheat,0,1,1,0,14,50,g7q3gnch,0,17,1714,0,23,2.457142857,2,2.166666667,1.666666667,3.5,2.75,2.6,1.5,2.5,3,3,3,3,Female,2,0,16,"Biological Resources, M.Sc.",1,2,18-24,Nepal,23
28,0xwx0wrp,2021-03-17 10:12:15.455722+00:00,2,426,,Cheat,0,1,1,0,14,51,g7q3gnch,0,17,1714,0,24,2.457142857,2,2.166666667,1.666666667,3.5,2.75,2.6,1.5,2.5,3,3,3,3,Female,2,0,16,"Biological Resources, M.Sc.",1,2,18-24,Nepal,24
28,0xwx0wrp,2021-03-17 10:12:15.455722+00:00,2,428,,Cheat,0,1,1,0,14,52,g7q3gnch,0,17,1714,0,25,2.457142857,2,2.166666667,1.666666667,3.5,2.75,2.6,1.5,2.5,3,3,3,3,Female,2,0,16,"Biological Resources, M.Sc.",1,2,18-24,Nepal,25
28,0xwx0wrp,2021-03-17 10:12:15.455722+00:00,2,438,,Don't Cheat,0,0,0,1,14,53,g7q3gnch,0,17,1714,0,25,2.457142857,2,2.166666667,1.666666667,3.5,2.75,2.6,1.5,2.5,3,3,3,3,Female,2,0,14,"Biological Resources, M.Sc.",1,2,18-24,Nepal,25
28,0xwx0wrp,2021-03-17 10:12:15.455722+00:00,2,440,,Cheat,0,1,1,0,14,54,g7q3gnch,0,17,1714,0,26,2.457142857,2,2.166666667,1.666666667,3.5,2.75,2.6,1.5,2.5,3,3,3,3,Female,2,0,16,"Biological Resources, M.Sc.",1,2,18-24,Nepal,26
28,0xwx0wrp,2021-03-17 10:12:15.455722+00:00,2,450,,Don't Cheat,0,0,0,1,14,55,g7q3gnch,0,17,1714,0,26,2.457142857,2,2.166666667,1.666666667,3.5,2.75,2.6,1.5,2.5,3,3,3,3,Female,2,0,14,"Biological Resources, M.Sc.",1,2,18-24,Nepal,26
28,0xwx0wrp,2021-03-17 10:12:15.455722+00:00,2,460,,Don't Cheat,0,0,0,1,14,56,g7q3gnch,0,17,1714,0,26,2.457142857,2,2.166666667,1.666666667,3.5,2.75,2.6,1.5,2.5,3,3,3,3,Female,2,0,14,"Biological Resources, M.Sc.",1,2,18-24,Nepal,26
28,0xwx0wrp,2021-03-17 10:12:15.455722+00:00,2,470,,Don't Cheat,0,0,0,1,14,57,g7q3gnch,0,17,1714,0,26,2.457142857,2,2.166666667,1.666666667,3.5,2.75,2.6,1.5,2.5,3,3,3,3,Female,2,0,14,"Biological Resources, M.Sc.",1,2,18-24,Nepal,26
28,0xwx0wrp,2021-03-17 10:12:15.455722+00:00,2,480,,Don't Cheat,0,0,0,1,14,58,g7q3gnch,0,17,1714,0,26,2.457142857,2,2.166666667,1.666666667,3.5,2.75,2.6,1.5,2.5,3,3,3,3,Female,2,0,14,"Biological Resources, M.Sc.",1,2,18-24,Nepal,26
28,0xwx0wrp,2021-03-17 10:12:15.455722+00:00,2,494,,Don't Cheat,0,0,0,1,14,59,g7q3gnch,0,17,1714,0,26,2.457142857,2,2.166666667,1.666666667,3.5,2.75,2.6,1.5,2.5,3,3,3,3,Female,2,0,14,"Biological Resources, M.Sc.",1,2,18-24,Nepal,26
28,0xwx0wrp,2021-03-17 10:12:15.455722+00:00,2,504,,Don't Cheat,0,0,0,1,14,60,g7q3gnch,0,17,1714,0,26,2.457142857,2,2.166666667,1.666666667,3.5,2.75,2.6,1.5,2.5,3,3,3,3,Female,2,0,14,"Biological Resources, M.Sc.",1,2,18-24,Nepal,26
28,0xwx0wrp,2021-03-17 10:12:15.455722+00:00,2,506,,Cheat,0,1,1,0,14,61,g7q3gnch,0,17,1714,0,27,2.457142857,2,2.166666667,1.666666667,3.5,2.75,2.6,1.5,2.5,3,3,3,3,Female,2,0,16,"Biological Resources, M.Sc.",1,2,18-24,Nepal,27
28,0xwx0wrp,2021-03-17 10:12:15.455722+00:00,2,508,,Cheat,0,1,1,0,14,62,g7q3gnch,0,17,1714,0,28,2.457142857,2,2.166666667,1.666666667,3.5,2.75,2.6,1.5,2.5,3,3,3,3,Female,2,0,16,"Biological Resources, M.Sc.",1,2,18-24,Nepal,28
28,0xwx0wrp,2021-03-17 10:12:15.455722+00:00,2,518,,Don't Cheat,0,0,0,1,14,63,g7q3gnch,0,17,1714,0,28,2.457142857,2,2.166666667,1.666666667,3.5,2.75,2.6,1.5,2.5,3,3,3,3,Female,2,0,14,"Biological Resources, M.Sc.",1,2,18-24,Nepal,28
28,0xwx0wrp,2021-03-17 10:12:15.455722+00:00,2,528,,Don't Cheat,0,0,0,1,14,64,g7q3gnch,0,17,1714,0,28,2.457142857,2,2.166666667,1.666666667,3.5,2.75,2.6,1.5,2.5,3,3,3,3,Female,2,0,14,"Biological Resources, M.Sc.",1,2,18-24,Nepal,28
28,0xwx0wrp,2021-03-17 10:12:15.455722+00:00,2,538,,Don't Cheat,0,0,0,1,14,65,g7q3gnch,0,17,1714,0,28,2.457142857,2,2.166666667,1.666666667,3.5,2.75,2.6,1.5,2.5,3,3,3,3,Female,2,0,14,"Biological Resources, M.Sc.",1,2,18-24,Nepal,28
28,0xwx0wrp,2021-03-17 10:12:15.455722+00:00,2,552,,Don't Cheat,0,0,0,1,14,66,g7q3gnch,0,17,1714,0,28,2.457142857,2,2.166666667,1.666666667,3.5,2.75,2.6,1.5,2.5,3,3,3,3,Female,2,0,14,"Biological Resources, M.Sc.",1,2,18-24,Nepal,28
28,0xwx0wrp,2021-03-17 10:12:15.455722+00:00,2,566,,Don't Cheat,0,0,0,1,14,67,g7q3gnch,0,17,1714,0,28,2.457142857,2,2.166666667,1.666666667,3.5,2.75,2.6,1.5,2.5,3,3,3,3,Female,2,0,14,"Biological Resources, M.Sc.",1,2,18-24,Nepal,28
28,0xwx0wrp,2021-03-17 10:12:15.455722+00:00,2,568,,Cheat,0,1,1,0,14,68,g7q3gnch,0,17,1714,0,29,2.457142857,2,2.166666667,1.666666667,3.5,2.75,2.6,1.5,2.5,3,3,3,3,Female,2,0,16,"Biological Resources, M.Sc.",1,2,18-24,Nepal,29
28,0xwx0wrp,2021-03-17 10:12:15.455722+00:00,2,578,,Don't Cheat,0,0,0,1,14,69,g7q3gnch,0,17,1714,0,29,2.457142857,2,2.166666667,1.666666667,3.5,2.75,2.6,1.5,2.5,3,3,3,3,Female,2,0,14,"Biological Resources, M.Sc.",1,2,18-24,Nepal,29
28,0xwx0wrp,2021-03-17 10:12:15.455722+00:00,2,580,,Cheat,0,1,1,0,14,70,g7q3gnch,0,17,1714,0,30,2.457142857,2,2.166666667,1.666666667,3.5,2.75,2.6,1.5,2.5,3,3,3,3,Female,2,0,16,"Biological Resources, M.Sc.",1,2,18-24,Nepal,30
18,17fpqn72,2021-03-18 10:13:20.393350+00:00,2,10,,Don't Cheat,0,0,0,1,9,1,spotdigz,0,18,189,0,0,2.485714286,2,3,1.333333333,2.5,3.75,1.8,3.5,2,2,4,2,1,Male,1,0,14,"Mechanical Engineering, B.Sc.",26,3,25-34,"Venezuela, Bolivarian Republic of",0
18,17fpqn72,2021-03-18 10:13:20.393350+00:00,2,20,,Don't Cheat,0,0,0,1,9,2,spotdigz,0,18,189,0,0,2.485714286,2,3,1.333333333,2.5,3.75,1.8,3.5,2,2,4,2,1,Male,1,0,14,"Mechanical Engineering, B.Sc.",26,3,25-34,"Venezuela, Bolivarian Republic of",0
18,17fpqn72,2021-03-18 10:13:20.393350+00:00,2,30,,Don't Cheat,0,0,0,1,9,3,spotdigz,0,18,189,0,0,2.485714286,2,3,1.333333333,2.5,3.75,1.8,3.5,2,2,4,2,1,Male,1,0,14,"Mechanical Engineering, B.Sc.",26,3,25-34,"Venezuela, Bolivarian Republic of",0
18,17fpqn72,2021-03-18 10:13:20.393350+00:00,2,40,,Don't Cheat,0,0,0,1,9,4,spotdigz,0,18,189,0,0,2.485714286,2,3,1.333333333,2.5,3.75,1.8,3.5,2,2,4,2,1,Male,1,0,14,"Mechanical Engineering, B.Sc.",26,3,25-34,"Venezuela, Bolivarian Republic of",0
18,17fpqn72,2021-03-18 10:13:20.393350+00:00,2,54,,Don't Cheat,0,0,0,1,9,5,spotdigz,0,18,189,0,0,2.485714286,2,3,1.333333333,2.5,3.75,1.8,3.5,2,2,4,2,1,Male,1,0,14,"Mechanical Engineering, B.Sc.",26,3,25-34,"Venezuela, Bolivarian Republic of",0
18,17fpqn72,2021-03-18 10:13:20.393350+00:00,2,64,,Don't Cheat,0,0,0,1,9,6,spotdigz,0,18,189,0,0,2.485714286,2,3,1.333333333,2.5,3.75,1.8,3.5,2,2,4,2,1,Male,1,0,14,"Mechanical Engineering, B.Sc.",26,3,25-34,"Venezuela, Bolivarian Republic of",0
18,17fpqn72,2021-03-18 10:13:20.393350+00:00,2,74,,Don't Cheat,0,0,0,1,9,7,spotdigz,0,18,189,0,0,2.485714286,2,3,1.333333333,2.5,3.75,1.8,3.5,2,2,4,2,1,Male,1,0,14,"Mechanical Engineering, B.Sc.",26,3,25-34,"Venezuela, Bolivarian Republic of",0
18,17fpqn72,2021-03-18 10:13:20.393350+00:00,2,84,,Don't Cheat,0,0,0,1,9,8,spotdigz,0,18,189,0,0,2.485714286,2,3,1.333333333,2.5,3.75,1.8,3.5,2,2,4,2,1,Male,1,0,14,"Mechanical Engineering, B.Sc.",26,3,25-34,"Venezuela, Bolivarian Republic of",0
18,17fpqn72,2021-03-18 10:13:20.393350+00:00,2,94,,Don't Cheat,0,0,0,1,9,9,spotdigz,0,18,189,0,0,2.485714286,2,3,1.333333333,2.5,3.75,1.8,3.5,2,2,4,2,1,Male,1,0,14,"Mechanical Engineering, B.Sc.",26,3,25-34,"Venezuela, Bolivarian Republic of",0
18,17fpqn72,2021-03-18 10:13:20.393350+00:00,2,104,,Don't Cheat,0,0,0,1,9,10,spotdigz,0,18,189,0,0,2.485714286,2,3,1.333333333,2.5,3.75,1.8,3.5,2,2,4,2,1,Male,1,0,14,"Mechanical Engineering, B.Sc.",26,3,25-34,"Venezuela, Bolivarian Republic of",0
18,17fpqn72,2021-03-18 10:13:20.393350+00:00,2,114,,Don't Cheat,0,0,0,1,9,11,spotdigz,0,18,189,0,0,2.485714286,2,3,1.333333333,2.5,3.75,1.8,3.5,2,2,4,2,1,Male,1,0,14,"Mechanical Engineering, B.Sc.",26,3,25-34,"Venezuela, Bolivarian Republic of",0
18,17fpqn72,2021-03-18 10:13:20.393350+00:00,2,116,,Cheat,0,1,1,0,9,12,spotdigz,0,18,189,0,1,2.485714286,2,3,1.333333333,2.5,3.75,1.8,3.5,2,2,4,2,1,Male,1,0,16,"Mechanical Engineering, B.Sc.",26,3,25-34,"Venezuela, Bolivarian Republic of",1
18,17fpqn72,2021-03-18 10:13:20.393350+00:00,2,126,,Don't Cheat,0,0,0,1,9,13,spotdigz,0,18,189,0,1,2.485714286,2,3,1.333333333,2.5,3.75,1.8,3.5,2,2,4,2,1,Male,1,0,14,"Mechanical Engineering, B.Sc.",26,3,25-34,"Venezuela, Bolivarian Republic of",1
18,17fpqn72,2021-03-18 10:13:20.393350+00:00,2,136,,Don't Cheat,0,0,0,1,9,14,spotdigz,0,18,189,0,1,2.485714286,2,3,1.333333333,2.5,3.75,1.8,3.5,2,2,4,2,1,Male,1,0,14,"Mechanical Engineering, B.Sc.",26,3,25-34,"Venezuela, Bolivarian Republic of",1
18,17fpqn72,2021-03-18 10:13:20.393350+00:00,2,146,,Don't Cheat,0,0,0,1,9,15,spotdigz,0,18,189,0,1,2.485714286,2,3,1.333333333,2.5,3.75,1.8,3.5,2,2,4,2,1,Male,1,0,14,"Mechanical Engineering, B.Sc.",26,3,25-34,"Venezuela, Bolivarian Republic of",1
18,17fpqn72,2021-03-18 10:13:20.393350+00:00,2,156,,Don't Cheat,0,0,0,1,9,16,spotdigz,0,18,189,0,1,2.485714286,2,3,1.333333333,2.5,3.75,1.8,3.5,2,2,4,2,1,Male,1,0,14,"Mechanical Engineering, B.Sc.",26,3,25-34,"Venezuela, Bolivarian Republic of",1
18,17fpqn72,2021-03-18 10:13:20.393350+00:00,2,166,,Don't Cheat,0,0,0,1,9,17,spotdigz,0,18,189,0,1,2.485714286,2,3,1.333333333,2.5,3.75,1.8,3.5,2,2,4,2,1,Male,1,0,14,"Mechanical Engineering, B.Sc.",26,3,25-34,"Venezuela, Bolivarian Republic of",1
18,17fpqn72,2021-03-18 10:13:20.393350+00:00,2,176,,Don't Cheat,0,0,0,1,9,18,spotdigz,0,18,189,0,1,2.485714286,2,3,1.333333333,2.5,3.75,1.8,3.5,2,2,4,2,1,Male,1,0,14,"Mechanical Engineering, B.Sc.",26,3,25-34,"Venezuela, Bolivarian Republic of",1
18,17fpqn72,2021-03-18 10:13:20.393350+00:00,2,186,,Don't Cheat,0,0,0,1,9,19,spotdigz,0,18,189,0,1,2.485714286,2,3,1.333333333,2.5,3.75,1.8,3.5,2,2,4,2,1,Male,1,0,14,"Mechanical Engineering, B.Sc.",26,3,25-34,"Venezuela, Bolivarian Republic of",1
18,17fpqn72,2021-03-18 10:13:20.393350+00:00,2,196,,Don't Cheat,0,0,0,1,9,20,spotdigz,0,18,189,0,1,2.485714286,2,3,1.333333333,2.5,3.75,1.8,3.5,2,2,4,2,1,Male,1,0,14,"Mechanical Engineering, B.Sc.",26,3,25-34,"Venezuela, Bolivarian Republic of",1
18,17fpqn72,2021-03-18 10:13:20.393350+00:00,2,206,,Don't Cheat,0,0,0,1,9,21,spotdigz,0,18,189,0,1,2.485714286,2,3,1.333333333,2.5,3.75,1.8,3.5,2,2,4,2,1,Male,1,0,14,"Mechanical Engineering, B.Sc.",26,3,25-34,"Venezuela, Bolivarian Republic of",1
18,17fpqn72,2021-03-18 10:13:20.393350+00:00,2,220,,Don't Cheat,0,0,0,1,9,22,spotdigz,0,18,189,0,1,2.485714286,2,3,1.333333333,2.5,3.75,1.8,3.5,2,2,4,2,1,Male,1,0,14,"Mechanical Engineering, B.Sc.",26,3,25-34,"Venezuela, Bolivarian Republic of",1
18,17fpqn72,2021-03-18 10:13:20.393350+00:00,2,230,,Don't Cheat,0,0,0,1,9,23,spotdigz,0,18,189,0,1,2.485714286,2,3,1.333333333,2.5,3.75,1.8,3.5,2,2,4,2,1,Male,1,0,14,"Mechanical Engineering, B.Sc.",26,3,25-34,"Venezuela, Bolivarian Republic of",1
18,17fpqn72,2021-03-18 10:13:20.393350+00:00,2,240,,Don't Cheat,0,0,0,1,9,24,spotdigz,0,18,189,0,1,2.485714286,2,3,1.333333333,2.5,3.75,1.8,3.5,2,2,4,2,1,Male,1,0,14,"Mechanical Engineering, B.Sc.",26,3,25-34,"Venezuela, Bolivarian Republic of",1
18,17fpqn72,2021-03-18 10:13:20.393350+00:00,2,254,,Don't Cheat,0,0,0,1,9,25,spotdigz,0,18,189,0,1,2.485714286,2,3,1.333333333,2.5,3.75,1.8,3.5,2,2,4,2,1,Male,1,0,14,"Mechanical Engineering, B.Sc.",26,3,25-34,"Venezuela, Bolivarian Republic of",1
18,17fpqn72,2021-03-18 10:13:20.393350+00:00,2,264,,Don't Cheat,0,0,0,1,9,26,spotdigz,0,18,189,0,1,2.485714286,2,3,1.333333333,2.5,3.75,1.8,3.5,2,2,4,2,1,Male,1,0,14,"Mechanical Engineering, B.Sc.",26,3,25-34,"Venezuela, Bolivarian Republic of",1
18,17fpqn72,2021-03-18 10:13:20.393350+00:00,2,274,,Don't Cheat,0,0,0,1,9,27,spotdigz,0,18,189,0,1,2.485714286,2,3,1.333333333,2.5,3.75,1.8,3.5,2,2,4,2,1,Male,1,0,14,"Mechanical Engineering, B.Sc.",26,3,25-34,"Venezuela, Bolivarian Republic of",1
18,17fpqn72,2021-03-18 10:13:20.393350+00:00,2,284,,Don't Cheat,0,0,0,1,9,28,spotdigz,0,18,189,0,1,2.485714286,2,3,1.333333333,2.5,3.75,1.8,3.5,2,2,4,2,1,Male,1,0,14,"Mechanical Engineering, B.Sc.",26,3,25-34,"Venezuela, Bolivarian Republic of",1
18,17fpqn72,2021-03-18 10:13:20.393350+00:00,2,294,,Don't Cheat,0,0,0,1,9,29,spotdigz,0,18,189,0,1,2.485714286,2,3,1.333333333,2.5,3.75,1.8,3.5,2,2,4,2,1,Male,1,0,14,"Mechanical Engineering, B.Sc.",26,3,25-34,"Venezuela, Bolivarian Republic of",1
18,17fpqn72,2021-03-18 10:13:20.393350+00:00,2,304,,Don't Cheat,0,0,0,1,9,30,spotdigz,0,18,189,0,1,2.485714286,2,3,1.333333333,2.5,3.75,1.8,3.5,2,2,4,2,1,Male,1,0,14,"Mechanical Engineering, B.Sc.",26,3,25-34,"Venezuela, Bolivarian Republic of",1
18,17fpqn72,2021-03-18 10:13:20.393350+00:00,2,314,,Don't Cheat,0,0,0,1,9,31,spotdigz,0,18,189,0,1,2.485714286,2,3,1.333333333,2.5,3.75,1.8,3.5,2,2,4,2,1,Male,1,0,14,"Mechanical Engineering, B.Sc.",26,3,25-34,"Venezuela, Bolivarian Republic of",1
18,17fpqn72,2021-03-18 10:13:20.393350+00:00,2,324,,Don't Cheat,0,0,0,1,9,32,spotdigz,0,18,189,0,1,2.485714286,2,3,1.333333333,2.5,3.75,1.8,3.5,2,2,4,2,1,Male,1,0,14,"Mechanical Engineering, B.Sc.",26,3,25-34,"Venezuela, Bolivarian Republic of",1
18,17fpqn72,2021-03-18 10:13:20.393350+00:00,2,334,,Don't Cheat,0,0,0,1,9,33,spotdigz,0,18,189,0,1,2.485714286,2,3,1.333333333,2.5,3.75,1.8,3.5,2,2,4,2,1,Male,1,0,14,"Mechanical Engineering, B.Sc.",26,3,25-34,"Venezuela, Bolivarian Republic of",1
18,17fpqn72,2021-03-18 10:13:20.393350+00:00,2,344,,Don't Cheat,0,0,0,1,9,34,spotdigz,0,18,189,0,1,2.485714286,2,3,1.333333333,2.5,3.75,1.8,3.5,2,2,4,2,1,Male,1,0,14,"Mechanical Engineering, B.Sc.",26,3,25-34,"Venezuela, Bolivarian Republic of",1
18,17fpqn72,2021-03-18 10:13:20.393350+00:00,2,358,,Don't Cheat,0,0,0,1,9,35,spotdigz,0,18,189,0,1,2.485714286,2,3,1.333333333,2.5,3.75,1.8,3.5,2,2,4,2,1,Male,1,0,14,"Mechanical Engineering, B.Sc.",26,3,25-34,"Venezuela, Bolivarian Republic of",1
18,17fpqn72,2021-03-18 10:13:20.393350+00:00,2,368,,Don't Cheat,0,0,0,1,9,36,spotdigz,0,18,189,0,1,2.485714286,2,3,1.333333333,2.5,3.75,1.8,3.5,2,2,4,2,1,Male,1,0,14,"Mechanical Engineering, B.Sc.",26,3,25-34,"Venezuela, Bolivarian Republic of",1
18,17fpqn72,2021-03-18 10:13:20.393350+00:00,2,378,,Don't Cheat,0,0,0,1,9,37,spotdigz,0,18,189,0,1,2.485714286,2,3,1.333333333,2.5,3.75,1.8,3.5,2,2,4,2,1,Male,1,0,14,"Mechanical Engineering, B.Sc.",26,3,25-34,"Venezuela, Bolivarian Republic of",1
18,17fpqn72,2021-03-18 10:13:20.393350+00:00,2,392,,Don't Cheat,0,0,0,1,9,38,spotdigz,0,18,189,0,1,2.485714286,2,3,1.333333333,2.5,3.75,1.8,3.5,2,2,4,2,1,Male,1,0,14,"Mechanical Engineering, B.Sc.",26,3,25-34,"Venezuela, Bolivarian Republic of",1
18,17fpqn72,2021-03-18 10:13:20.393350+00:00,2,402,,Don't Cheat,0,0,0,1,9,39,spotdigz,0,18,189,0,1,2.485714286,2,3,1.333333333,2.5,3.75,1.8,3.5,2,2,4,2,1,Male,1,0,14,"Mechanical Engineering, B.Sc.",26,3,25-34,"Venezuela, Bolivarian Republic of",1
18,17fpqn72,2021-03-18 10:13:20.393350+00:00,2,412,,Don't Cheat,0,0,0,1,9,40,spotdigz,0,18,189,0,1,2.485714286,2,3,1.333333333,2.5,3.75,1.8,3.5,2,2,4,2,1,Male,1,0,14,"Mechanical Engineering, B.Sc.",26,3,25-34,"Venezuela, Bolivarian Republic of",1
18,17fpqn72,2021-03-18 10:13:20.393350+00:00,2,422,,Don't Cheat,0,0,0,1,9,41,spotdigz,0,18,189,0,1,2.485714286,2,3,1.333333333,2.5,3.75,1.8,3.5,2,2,4,2,1,Male,1,0,14,"Mechanical Engineering, B.Sc.",26,3,25-34,"Venezuela, Bolivarian Republic of",1
18,17fpqn72,2021-03-18 10:13:20.393350+00:00,2,432,,Don't Cheat,0,0,0,1,9,42,spotdigz,0,18,189,0,1,2.485714286,2,3,1.333333333,2.5,3.75,1.8,3.5,2,2,4,2,1,Male,1,0,14,"Mechanical Engineering, B.Sc.",26,3,25-34,"Venezuela, Bolivarian Republic of",1
18,17fpqn72,2021-03-18 10:13:20.393350+00:00,2,442,,Don't Cheat,0,0,0,1,9,43,spotdigz,0,18,189,0,1,2.485714286,2,3,1.333333333,2.5,3.75,1.8,3.5,2,2,4,2,1,Male,1,0,14,"Mechanical Engineering, B.Sc.",26,3,25-34,"Venezuela, Bolivarian Republic of",1
18,17fpqn72,2021-03-18 10:13:20.393350+00:00,2,452,,Don't Cheat,0,0,0,1,9,44,spotdigz,0,18,189,0,1,2.485714286,2,3,1.333333333,2.5,3.75,1.8,3.5,2,2,4,2,1,Male,1,0,14,"Mechanical Engineering, B.Sc.",26,3,25-34,"Venezuela, Bolivarian Republic of",1
18,17fpqn72,2021-03-18 10:13:20.393350+00:00,2,462,,Don't Cheat,0,0,0,1,9,45,spotdigz,0,18,189,0,1,2.485714286,2,3,1.333333333,2.5,3.75,1.8,3.5,2,2,4,2,1,Male,1,0,14,"Mechanical Engineering, B.Sc.",26,3,25-34,"Venezuela, Bolivarian Republic of",1
18,17fpqn72,2021-03-18 10:13:20.393350+00:00,2,472,,Don't Cheat,0,0,0,1,9,46,spotdigz,0,18,189,0,1,2.485714286,2,3,1.333333333,2.5,3.75,1.8,3.5,2,2,4,2,1,Male,1,0,14,"Mechanical Engineering, B.Sc.",26,3,25-34,"Venezuela, Bolivarian Republic of",1
18,17fpqn72,2021-03-18 10:13:20.393350+00:00,2,482,,Don't Cheat,0,0,0,1,9,47,spotdigz,0,18,189,0,1,2.485714286,2,3,1.333333333,2.5,3.75,1.8,3.5,2,2,4,2,1,Male,1,0,14,"Mechanical Engineering, B.Sc.",26,3,25-34,"Venezuela, Bolivarian Republic of",1
18,17fpqn72,2021-03-18 10:13:20.393350+00:00,2,492,,Don't Cheat,0,0,0,1,9,48,spotdigz,0,18,189,0,1,2.485714286,2,3,1.333333333,2.5,3.75,1.8,3.5,2,2,4,2,1,Male,1,0,14,"Mechanical Engineering, B.Sc.",26,3,25-34,"Venezuela, Bolivarian Republic of",1
18,17fpqn72,2021-03-18 10:13:20.393350+00:00,2,502,,Don't Cheat,0,0,0,1,9,49,spotdigz,0,18,189,0,1,2.485714286,2,3,1.333333333,2.5,3.75,1.8,3.5,2,2,4,2,1,Male,1,0,14,"Mechanical Engineering, B.Sc.",26,3,25-34,"Venezuela, Bolivarian Republic of",1
18,17fpqn72,2021-03-18 10:13:20.393350+00:00,2,512,,Don't Cheat,0,0,0,1,9,50,spotdigz,0,18,189,0,1,2.485714286,2,3,1.333333333,2.5,3.75,1.8,3.5,2,2,4,2,1,Male,1,0,14,"Mechanical Engineering, B.Sc.",26,3,25-34,"Venezuela, Bolivarian Republic of",1
18,17fpqn72,2021-03-18 10:13:20.393350+00:00,2,522,,Don't Cheat,0,0,0,1,9,51,spotdigz,0,18,189,0,1,2.485714286,2,3,1.333333333,2.5,3.75,1.8,3.5,2,2,4,2,1,Male,1,0,14,"Mechanical Engineering, B.Sc.",26,3,25-34,"Venezuela, Bolivarian Republic of",1
18,17fpqn72,2021-03-18 10:13:20.393350+00:00,2,532,,Don't Cheat,0,0,0,1,9,52,spotdigz,0,18,189,0,1,2.485714286,2,3,1.333333333,2.5,3.75,1.8,3.5,2,2,4,2,1,Male,1,0,14,"Mechanical Engineering, B.Sc.",26,3,25-34,"Venezuela, Bolivarian Republic of",1
18,17fpqn72,2021-03-18 10:13:20.393350+00:00,2,542,,Don't Cheat,0,0,0,1,9,53,spotdigz,0,18,189,0,1,2.485714286,2,3,1.333333333,2.5,3.75,1.8,3.5,2,2,4,2,1,Male,1,0,14,"Mechanical Engineering, B.Sc.",26,3,25-34,"Venezuela, Bolivarian Republic of",1
18,17fpqn72,2021-03-18 10:13:20.393350+00:00,2,556,,Don't Cheat,0,0,0,1,9,54,spotdigz,0,18,189,0,1,2.485714286,2,3,1.333333333,2.5,3.75,1.8,3.5,2,2,4,2,1,Male,1,0,14,"Mechanical Engineering, B.Sc.",26,3,25-34,"Venezuela, Bolivarian Republic of",1
18,17fpqn72,2021-03-18 10:13:20.393350+00:00,2,566,,Don't Cheat,0,0,0,1,9,55,spotdigz,0,18,189,0,1,2.485714286,2,3,1.333333333,2.5,3.75,1.8,3.5,2,2,4,2,1,Male,1,0,14,"Mechanical Engineering, B.Sc.",26,3,25-34,"Venezuela, Bolivarian Republic of",1
18,17fpqn72,2021-03-18 10:13:20.393350+00:00,2,576,,Don't Cheat,0,0,0,1,9,56,spotdigz,0,18,189,0,1,2.485714286,2,3,1.333333333,2.5,3.75,1.8,3.5,2,2,4,2,1,Male,1,0,14,"Mechanical Engineering, B.Sc.",26,3,25-34,"Venezuela, Bolivarian Republic of",1
18,17fpqn72,2021-03-18 10:13:20.393350+00:00,2,586,,Don't Cheat,0,0,0,1,9,57,spotdigz,0,18,189,0,1,2.485714286,2,3,1.333333333,2.5,3.75,1.8,3.5,2,2,4,2,1,Male,1,0,14,"Mechanical Engineering, B.Sc.",26,3,25-34,"Venezuela, Bolivarian Republic of",1
18,17fpqn72,2021-03-18 10:13:20.393350+00:00,2,596,,Don't Cheat,0,0,0,1,9,58,spotdigz,0,18,189,0,1,2.485714286,2,3,1.333333333,2.5,3.75,1.8,3.5,2,2,4,2,1,Male,1,0,14,"Mechanical Engineering, B.Sc.",26,3,25-34,"Venezuela, Bolivarian Republic of",1
18,17fpqn72,2021-03-18 10:13:20.393350+00:00,2,606,,Don't Cheat,0,0,0,1,9,59,spotdigz,0,18,189,0,1,2.485714286,2,3,1.333333333,2.5,3.75,1.8,3.5,2,2,4,2,1,Male,1,0,14,"Mechanical Engineering, B.Sc.",26,3,25-34,"Venezuela, Bolivarian Republic of",1
18,17fpqn72,2021-03-18 10:13:20.393350+00:00,2,616,,Don't Cheat,0,0,0,1,9,60,spotdigz,0,18,189,0,1,2.485714286,2,3,1.333333333,2.5,3.75,1.8,3.5,2,2,4,2,1,Male,1,0,14,"Mechanical Engineering, B.Sc.",26,3,25-34,"Venezuela, Bolivarian Republic of",1
18,17fpqn72,2021-03-18 10:13:20.393350+00:00,2,630,,Don't Cheat,0,0,0,1,9,61,spotdigz,0,18,189,0,1,2.485714286,2,3,1.333333333,2.5,3.75,1.8,3.5,2,2,4,2,1,Male,1,0,14,"Mechanical Engineering, B.Sc.",26,3,25-34,"Venezuela, Bolivarian Republic of",1
18,17fpqn72,2021-03-18 10:13:20.393350+00:00,2,640,,Don't Cheat,0,0,0,1,9,62,spotdigz,0,18,189,0,1,2.485714286,2,3,1.333333333,2.5,3.75,1.8,3.5,2,2,4,2,1,Male,1,0,14,"Mechanical Engineering, B.Sc.",26,3,25-34,"Venezuela, Bolivarian Republic of",1
18,17fpqn72,2021-03-18 10:13:20.393350+00:00,2,654,,Don't Cheat,0,0,0,1,9,63,spotdigz,0,18,189,0,1,2.485714286,2,3,1.333333333,2.5,3.75,1.8,3.5,2,2,4,2,1,Male,1,0,14,"Mechanical Engineering, B.Sc.",26,3,25-34,"Venezuela, Bolivarian Republic of",1
18,17fpqn72,2021-03-18 10:13:20.393350+00:00,2,664,,Don't Cheat,0,0,0,1,9,64,spotdigz,0,18,189,0,1,2.485714286,2,3,1.333333333,2.5,3.75,1.8,3.5,2,2,4,2,1,Male,1,0,14,"Mechanical Engineering, B.Sc.",26,3,25-34,"Venezuela, Bolivarian Republic of",1
18,17fpqn72,2021-03-18 10:13:20.393350+00:00,2,674,,Don't Cheat,0,0,0,1,9,65,spotdigz,0,18,189,0,1,2.485714286,2,3,1.333333333,2.5,3.75,1.8,3.5,2,2,4,2,1,Male,1,0,14,"Mechanical Engineering, B.Sc.",26,3,25-34,"Venezuela, Bolivarian Republic of",1
18,17fpqn72,2021-03-18 10:13:20.393350+00:00,2,684,,Don't Cheat,0,0,0,1,9,66,spotdigz,0,18,189,0,1,2.485714286,2,3,1.333333333,2.5,3.75,1.8,3.5,2,2,4,2,1,Male,1,0,14,"Mechanical Engineering, B.Sc.",26,3,25-34,"Venezuela, Bolivarian Republic of",1
18,17fpqn72,2021-03-18 10:13:20.393350+00:00,2,694,,Don't Cheat,0,0,0,1,9,67,spotdigz,0,18,189,0,1,2.485714286,2,3,1.333333333,2.5,3.75,1.8,3.5,2,2,4,2,1,Male,1,0,14,"Mechanical Engineering, B.Sc.",26,3,25-34,"Venezuela, Bolivarian Republic of",1
18,17fpqn72,2021-03-18 10:13:20.393350+00:00,2,708,,Don't Cheat,0,0,0,1,9,68,spotdigz,0,18,189,0,1,2.485714286,2,3,1.333333333,2.5,3.75,1.8,3.5,2,2,4,2,1,Male,1,0,14,"Mechanical Engineering, B.Sc.",26,3,25-34,"Venezuela, Bolivarian Republic of",1
18,17fpqn72,2021-03-18 10:13:20.393350+00:00,2,718,,Don't Cheat,0,0,0,1,9,69,spotdigz,0,18,189,0,1,2.485714286,2,3,1.333333333,2.5,3.75,1.8,3.5,2,2,4,2,1,Male,1,0,14,"Mechanical Engineering, B.Sc.",26,3,25-34,"Venezuela, Bolivarian Republic of",1
18,17fpqn72,2021-03-18 10:13:20.393350+00:00,2,728,,Don't Cheat,0,0,0,1,9,70,spotdigz,0,18,189,0,1,2.485714286,2,3,1.333333333,2.5,3.75,1.8,3.5,2,2,4,2,1,Male,1,0,14,"Mechanical Engineering, B.Sc.",26,3,25-34,"Venezuela, Bolivarian Republic of",1
8,20cc9xq0,2021-03-17 10:10:53.364464+00:00,2,10,,Don't Cheat,0,0,0,1,4,1,g7q3gnch,0,17,174,0,0,1.914285714,1.75,1.833333333,2,1.5,1.75,1.6,3,3,1.666666667,2,2,2,Female,2,0,14,"Bionengineering, B.Sc.",3,2,18-24,Germany,0
8,20cc9xq0,2021-03-17 10:10:53.364464+00:00,2,20,,Don't Cheat,0,0,0,1,4,2,g7q3gnch,0,17,174,0,0,1.914285714,1.75,1.833333333,2,1.5,1.75,1.6,3,3,1.666666667,2,2,2,Female,2,0,14,"Bionengineering, B.Sc.",3,2,18-24,Germany,0
8,20cc9xq0,2021-03-17 10:10:53.364464+00:00,2,34,,Don't Cheat,0,0,0,1,4,3,g7q3gnch,0,17,174,0,0,1.914285714,1.75,1.833333333,2,1.5,1.75,1.6,3,3,1.666666667,2,2,2,Female,2,0,14,"Bionengineering, B.Sc.",3,2,18-24,Germany,0
8,20cc9xq0,2021-03-17 10:10:53.364464+00:00,2,44,,Don't Cheat,0,0,0,1,4,4,g7q3gnch,0,17,174,0,0,1.914285714,1.75,1.833333333,2,1.5,1.75,1.6,3,3,1.666666667,2,2,2,Female,2,0,14,"Bionengineering, B.Sc.",3,2,18-24,Germany,0
8,20cc9xq0,2021-03-17 10:10:53.364464+00:00,2,58,,Don't Cheat,0,0,0,1,4,5,g7q3gnch,0,17,174,0,0,1.914285714,1.75,1.833333333,2,1.5,1.75,1.6,3,3,1.666666667,2,2,2,Female,2,0,14,"Bionengineering, B.Sc.",3,2,18-24,Germany,0
8,20cc9xq0,2021-03-17 10:10:53.364464+00:00,2,72,,Don't Cheat,0,0,0,1,4,6,g7q3gnch,0,17,174,0,0,1.914285714,1.75,1.833333333,2,1.5,1.75,1.6,3,3,1.666666667,2,2,2,Female,2,0,14,"Bionengineering, B.Sc.",3,2,18-24,Germany,0
8,20cc9xq0,2021-03-17 10:10:53.364464+00:00,2,82,,Don't Cheat,0,0,0,1,4,7,g7q3gnch,0,17,174,0,0,1.914285714,1.75,1.833333333,2,1.5,1.75,1.6,3,3,1.666666667,2,2,2,Female,2,0,14,"Bionengineering, B.Sc.",3,2,18-24,Germany,0
8,20cc9xq0,2021-03-17 10:10:53.364464+00:00,2,96,,Don't Cheat,0,0,0,1,4,8,g7q3gnch,0,17,174,0,0,1.914285714,1.75,1.833333333,2,1.5,1.75,1.6,3,3,1.666666667,2,2,2,Female,2,0,14,"Bionengineering, B.Sc.",3,2,18-24,Germany,0
8,20cc9xq0,2021-03-17 10:10:53.364464+00:00,2,110,,Don't Cheat,0,0,0,1,4,9,g7q3gnch,0,17,174,0,0,1.914285714,1.75,1.833333333,2,1.5,1.75,1.6,3,3,1.666666667,2,2,2,Female,2,0,14,"Bionengineering, B.Sc.",3,2,18-24,Germany,0
8,20cc9xq0,2021-03-17 10:10:53.364464+00:00,2,126,,Cheat,0,1,1,0,4,10,g7q3gnch,0,17,174,0,1,1.914285714,1.75,1.833333333,2,1.5,1.75,1.6,3,3,1.666666667,2,2,2,Female,2,0,16,"Bionengineering, B.Sc.",3,2,18-24,Germany,1
8,20cc9xq0,2021-03-17 10:10:53.364464+00:00,2,136,,Don't Cheat,0,0,0,1,4,11,g7q3gnch,0,17,174,0,1,1.914285714,1.75,1.833333333,2,1.5,1.75,1.6,3,3,1.666666667,2,2,2,Female,2,0,14,"Bionengineering, B.Sc.",3,2,18-24,Germany,1
8,20cc9xq0,2021-03-17 10:10:53.364464+00:00,2,146,,Don't Cheat,0,0,0,1,4,12,g7q3gnch,0,17,174,0,1,1.914285714,1.75,1.833333333,2,1.5,1.75,1.6,3,3,1.666666667,2,2,2,Female,2,0,14,"Bionengineering, B.Sc.",3,2,18-24,Germany,1
8,20cc9xq0,2021-03-17 10:10:53.364464+00:00,2,160,,Don't Cheat,0,0,0,1,4,13,g7q3gnch,0,17,174,0,1,1.914285714,1.75,1.833333333,2,1.5,1.75,1.6,3,3,1.666666667,2,2,2,Female,2,0,14,"Bionengineering, B.Sc.",3,2,18-24,Germany,1
8,20cc9xq0,2021-03-17 10:10:53.364464+00:00,2,174,,Don't Cheat,0,0,0,1,4,14,g7q3gnch,0,17,174,0,1,1.914285714,1.75,1.833333333,2,1.5,1.75,1.6,3,3,1.666666667,2,2,2,Female,2,0,14,"Bionengineering, B.Sc.",3,2,18-24,Germany,1
8,20cc9xq0,2021-03-17 10:10:53.364464+00:00,2,188,,Don't Cheat,0,0,0,1,4,15,g7q3gnch,0,17,174,0,1,1.914285714,1.75,1.833333333,2,1.5,1.75,1.6,3,3,1.666666667,2,2,2,Female,2,0,14,"Bionengineering, B.Sc.",3,2,18-24,Germany,1
8,20cc9xq0,2021-03-17 10:10:53.364464+00:00,2,202,,Don't Cheat,0,0,0,1,4,16,g7q3gnch,0,17,174,0,1,1.914285714,1.75,1.833333333,2,1.5,1.75,1.6,3,3,1.666666667,2,2,2,Female,2,0,14,"Bionengineering, B.Sc.",3,2,18-24,Germany,1
8,20cc9xq0,2021-03-17 10:10:53.364464+00:00,2,216,,Don't Cheat,0,0,0,1,4,17,g7q3gnch,0,17,174,0,1,1.914285714,1.75,1.833333333,2,1.5,1.75,1.6,3,3,1.666666667,2,2,2,Female,2,0,14,"Bionengineering, B.Sc.",3,2,18-24,Germany,1
8,20cc9xq0,2021-03-17 10:10:53.364464+00:00,2,232,,Cheat,0,1,1,0,4,18,g7q3gnch,0,17,174,0,2,1.914285714,1.75,1.833333333,2,1.5,1.75,1.6,3,3,1.666666667,2,2,2,Female,2,0,16,"Bionengineering, B.Sc.",3,2,18-24,Germany,2
8,20cc9xq0,2021-03-17 10:10:53.364464+00:00,2,242,,Don't Cheat,0,0,0,1,4,19,g7q3gnch,0,17,174,0,2,1.914285714,1.75,1.833333333,2,1.5,1.75,1.6,3,3,1.666666667,2,2,2,Female,2,0,14,"Bionengineering, B.Sc.",3,2,18-24,Germany,2
8,20cc9xq0,2021-03-17 10:10:53.364464+00:00,2,252,,Don't Cheat,0,0,0,1,4,20,g7q3gnch,0,17,174,0,2,1.914285714,1.75,1.833333333,2,1.5,1.75,1.6,3,3,1.666666667,2,2,2,Female,2,0,14,"Bionengineering, B.Sc.",3,2,18-24,Germany,2
8,20cc9xq0,2021-03-17 10:10:53.364464+00:00,2,262,,Don't Cheat,0,0,0,1,4,21,g7q3gnch,0,17,174,0,2,1.914285714,1.75,1.833333333,2,1.5,1.75,1.6,3,3,1.666666667,2,2,2,Female,2,0,14,"Bionengineering, B.Sc.",3,2,18-24,Germany,2
8,20cc9xq0,2021-03-17 10:10:53.364464+00:00,2,272,,Don't Cheat,0,0,0,1,4,22,g7q3gnch,0,17,174,0,2,1.914285714,1.75,1.833333333,2,1.5,1.75,1.6,3,3,1.666666667,2,2,2,Female,2,0,14,"Bionengineering, B.Sc.",3,2,18-24,Germany,2
8,20cc9xq0,2021-03-17 10:10:53.364464+00:00,2,282,,Don't Cheat,0,0,0,1,4,23,g7q3gnch,0,17,174,0,2,1.914285714,1.75,1.833333333,2,1.5,1.75,1.6,3,3,1.666666667,2,2,2,Female,2,0,14,"Bionengineering, B.Sc.",3,2,18-24,Germany,2
8,20cc9xq0,2021-03-17 10:10:53.364464+00:00,2,292,,Don't Cheat,0,0,0,1,4,24,g7q3gnch,0,17,174,0,2,1.914285714,1.75,1.833333333,2,1.5,1.75,1.6,3,3,1.666666667,2,2,2,Female,2,0,14,"Bionengineering, B.Sc.",3,2,18-24,Germany,2
8,20cc9xq0,2021-03-17 10:10:53.364464+00:00,2,302,,Don't Cheat,0,0,0,1,4,25,g7q3gnch,0,17,174,0,2,1.914285714,1.75,1.833333333,2,1.5,1.75,1.6,3,3,1.666666667,2,2,2,Female,2,0,14,"Bionengineering, B.Sc.",3,2,18-24,Germany,2
8,20cc9xq0,2021-03-17 10:10:53.364464+00:00,2,312,,Don't Cheat,0,0,0,1,4,26,g7q3gnch,0,17,174,0,2,1.914285714,1.75,1.833333333,2,1.5,1.75,1.6,3,3,1.666666667,2,2,2,Female,2,0,14,"Bionengineering, B.Sc.",3,2,18-24,Germany,2
8,20cc9xq0,2021-03-17 10:10:53.364464+00:00,2,326,,Don't Cheat,0,0,0,1,4,27,g7q3gnch,0,17,174,0,2,1.914285714,1.75,1.833333333,2,1.5,1.75,1.6,3,3,1.666666667,2,2,2,Female,2,0,14,"Bionengineering, B.Sc.",3,2,18-24,Germany,2
8,20cc9xq0,2021-03-17 10:10:53.364464+00:00,2,340,,Don't Cheat,0,0,0,1,4,28,g7q3gnch,0,17,174,0,2,1.914285714,1.75,1.833333333,2,1.5,1.75,1.6,3,3,1.666666667,2,2,2,Female,2,0,14,"Bionengineering, B.Sc.",3,2,18-24,Germany,2
8,20cc9xq0,2021-03-17 10:10:53.364464+00:00,2,354,,Don't Cheat,0,0,0,1,4,29,g7q3gnch,0,17,174,0,2,1.914285714,1.75,1.833333333,2,1.5,1.75,1.6,3,3,1.666666667,2,2,2,Female,2,0,14,"Bionengineering, B.Sc.",3,2,18-24,Germany,2
8,20cc9xq0,2021-03-17 10:10:53.364464+00:00,2,364,,Don't Cheat,0,0,0,1,4,30,g7q3gnch,0,17,174,0,2,1.914285714,1.75,1.833333333,2,1.5,1.75,1.6,3,3,1.666666667,2,2,2,Female,2,0,14,"Bionengineering, B.Sc.",3,2,18-24,Germany,2
8,20cc9xq0,2021-03-17 10:10:53.364464+00:00,2,378,,Don't Cheat,0,0,0,1,4,31,g7q3gnch,0,17,174,0,2,1.914285714,1.75,1.833333333,2,1.5,1.75,1.6,3,3,1.666666667,2,2,2,Female,2,0,14,"Bionengineering, B.Sc.",3,2,18-24,Germany,2
8,20cc9xq0,2021-03-17 10:10:53.364464+00:00,2,392,,Don't Cheat,0,0,0,1,4,32,g7q3gnch,0,17,174,0,2,1.914285714,1.75,1.833333333,2,1.5,1.75,1.6,3,3,1.666666667,2,2,2,Female,2,0,14,"Bionengineering, B.Sc.",3,2,18-24,Germany,2
8,20cc9xq0,2021-03-17 10:10:53.364464+00:00,2,406,,Don't Cheat,0,0,0,1,4,33,g7q3gnch,0,17,174,0,2,1.914285714,1.75,1.833333333,2,1.5,1.75,1.6,3,3,1.666666667,2,2,2,Female,2,0,14,"Bionengineering, B.Sc.",3,2,18-24,Germany,2
8,20cc9xq0,2021-03-17 10:10:53.364464+00:00,2,420,,Don't Cheat,0,0,0,1,4,34,g7q3gnch,0,17,174,0,2,1.914285714,1.75,1.833333333,2,1.5,1.75,1.6,3,3,1.666666667,2,2,2,Female,2,0,14,"Bionengineering, B.Sc.",3,2,18-24,Germany,2
8,20cc9xq0,2021-03-17 10:10:53.364464+00:00,2,434,,Don't Cheat,0,0,0,1,4,35,g7q3gnch,0,17,174,0,2,1.914285714,1.75,1.833333333,2,1.5,1.75,1.6,3,3,1.666666667,2,2,2,Female,2,0,14,"Bionengineering, B.Sc.",3,2,18-24,Germany,2
8,20cc9xq0,2021-03-17 10:10:53.364464+00:00,2,450,,Cheat,0,1,1,0,4,36,g7q3gnch,0,17,174,0,3,1.914285714,1.75,1.833333333,2,1.5,1.75,1.6,3,3,1.666666667,2,2,2,Female,2,0,16,"Bionengineering, B.Sc.",3,2,18-24,Germany,3
8,20cc9xq0,2021-03-17 10:10:53.364464+00:00,2,460,,Don't Cheat,0,0,0,1,4,37,g7q3gnch,0,17,174,0,3,1.914285714,1.75,1.833333333,2,1.5,1.75,1.6,3,3,1.666666667,2,2,2,Female,2,0,14,"Bionengineering, B.Sc.",3,2,18-24,Germany,3
8,20cc9xq0,2021-03-17 10:10:53.364464+00:00,2,470,,Don't Cheat,0,0,0,1,4,38,g7q3gnch,0,17,174,0,3,1.914285714,1.75,1.833333333,2,1.5,1.75,1.6,3,3,1.666666667,2,2,2,Female,2,0,14,"Bionengineering, B.Sc.",3,2,18-24,Germany,3
8,20cc9xq0,2021-03-17 10:10:53.364464+00:00,2,480,,Don't Cheat,0,0,0,1,4,39,g7q3gnch,0,17,174,0,3,1.914285714,1.75,1.833333333,2,1.5,1.75,1.6,3,3,1.666666667,2,2,2,Female,2,0,14,"Bionengineering, B.Sc.",3,2,18-24,Germany,3
8,20cc9xq0,2021-03-17 10:10:53.364464+00:00,2,490,,Don't Cheat,0,0,0,1,4,40,g7q3gnch,0,17,174,0,3,1.914285714,1.75,1.833333333,2,1.5,1.75,1.6,3,3,1.666666667,2,2,2,Female,2,0,14,"Bionengineering, B.Sc.",3,2,18-24,Germany,3
8,20cc9xq0,2021-03-17 10:10:53.364464+00:00,2,500,,Don't Cheat,0,0,0,1,4,41,g7q3gnch,0,17,174,0,3,1.914285714,1.75,1.833333333,2,1.5,1.75,1.6,3,3,1.666666667,2,2,2,Female,2,0,14,"Bionengineering, B.Sc.",3,2,18-24,Germany,3
8,20cc9xq0,2021-03-17 10:10:53.364464+00:00,2,510,,Don't Cheat,0,0,0,1,4,42,g7q3gnch,0,17,174,0,3,1.914285714,1.75,1.833333333,2,1.5,1.75,1.6,3,3,1.666666667,2,2,2,Female,2,0,14,"Bionengineering, B.Sc.",3,2,18-24,Germany,3
8,20cc9xq0,2021-03-17 10:10:53.364464+00:00,2,520,,Don't Cheat,0,0,0,1,4,43,g7q3gnch,0,17,174,0,3,1.914285714,1.75,1.833333333,2,1.5,1.75,1.6,3,3,1.666666667,2,2,2,Female,2,0,14,"Bionengineering, B.Sc.",3,2,18-24,Germany,3
8,20cc9xq0,2021-03-17 10:10:53.364464+00:00,2,530,,Don't Cheat,0,0,0,1,4,44,g7q3gnch,0,17,174,0,3,1.914285714,1.75,1.833333333,2,1.5,1.75,1.6,3,3,1.666666667,2,2,2,Female,2,0,14,"Bionengineering, B.Sc.",3,2,18-24,Germany,3
8,20cc9xq0,2021-03-17 10:10:53.364464+00:00,2,540,,Don't Cheat,0,0,0,1,4,45,g7q3gnch,0,17,174,0,3,1.914285714,1.75,1.833333333,2,1.5,1.75,1.6,3,3,1.666666667,2,2,2,Female,2,0,14,"Bionengineering, B.Sc.",3,2,18-24,Germany,3
8,20cc9xq0,2021-03-17 10:10:53.364464+00:00,2,550,,Don't Cheat,0,0,0,1,4,46,g7q3gnch,0,17,174,0,3,1.914285714,1.75,1.833333333,2,1.5,1.75,1.6,3,3,1.666666667,2,2,2,Female,2,0,14,"Bionengineering, B.Sc.",3,2,18-24,Germany,3
8,20cc9xq0,2021-03-17 10:10:53.364464+00:00,2,560,,Don't Cheat,0,0,0,1,4,47,g7q3gnch,0,17,174,0,3,1.914285714,1.75,1.833333333,2,1.5,1.75,1.6,3,3,1.666666667,2,2,2,Female,2,0,14,"Bionengineering, B.Sc.",3,2,18-24,Germany,3
8,20cc9xq0,2021-03-17 10:10:53.364464+00:00,2,570,,Don't Cheat,0,0,0,1,4,48,g7q3gnch,0,17,174,0,3,1.914285714,1.75,1.833333333,2,1.5,1.75,1.6,3,3,1.666666667,2,2,2,Female,2,0,14,"Bionengineering, B.Sc.",3,2,18-24,Germany,3
8,20cc9xq0,2021-03-17 10:10:53.364464+00:00,2,580,,Don't Cheat,0,0,0,1,4,49,g7q3gnch,0,17,174,0,3,1.914285714,1.75,1.833333333,2,1.5,1.75,1.6,3,3,1.666666667,2,2,2,Female,2,0,14,"Bionengineering, B.Sc.",3,2,18-24,Germany,3
8,20cc9xq0,2021-03-17 10:10:53.364464+00:00,2,590,,Don't Cheat,0,0,0,1,4,50,g7q3gnch,0,17,174,0,3,1.914285714,1.75,1.833333333,2,1.5,1.75,1.6,3,3,1.666666667,2,2,2,Female,2,0,14,"Bionengineering, B.Sc.",3,2,18-24,Germany,3
8,20cc9xq0,2021-03-17 10:10:53.364464+00:00,2,600,,Don't Cheat,0,0,0,1,4,51,g7q3gnch,0,17,174,0,3,1.914285714,1.75,1.833333333,2,1.5,1.75,1.6,3,3,1.666666667,2,2,2,Female,2,0,14,"Bionengineering, B.Sc.",3,2,18-24,Germany,3
8,20cc9xq0,2021-03-17 10:10:53.364464+00:00,2,610,,Don't Cheat,0,0,0,1,4,52,g7q3gnch,0,17,174,0,3,1.914285714,1.75,1.833333333,2,1.5,1.75,1.6,3,3,1.666666667,2,2,2,Female,2,0,14,"Bionengineering, B.Sc.",3,2,18-24,Germany,3
8,20cc9xq0,2021-03-17 10:10:53.364464+00:00,2,620,,Don't Cheat,0,0,0,1,4,53,g7q3gnch,0,17,174,0,3,1.914285714,1.75,1.833333333,2,1.5,1.75,1.6,3,3,1.666666667,2,2,2,Female,2,0,14,"Bionengineering, B.Sc.",3,2,18-24,Germany,3
8,20cc9xq0,2021-03-17 10:10:53.364464+00:00,2,630,,Don't Cheat,0,0,0,1,4,54,g7q3gnch,0,17,174,0,3,1.914285714,1.75,1.833333333,2,1.5,1.75,1.6,3,3,1.666666667,2,2,2,Female,2,0,14,"Bionengineering, B.Sc.",3,2,18-24,Germany,3
8,20cc9xq0,2021-03-17 10:10:53.364464+00:00,2,640,,Don't Cheat,0,0,0,1,4,55,g7q3gnch,0,17,174,0,3,1.914285714,1.75,1.833333333,2,1.5,1.75,1.6,3,3,1.666666667,2,2,2,Female,2,0,14,"Bionengineering, B.Sc.",3,2,18-24,Germany,3
8,20cc9xq0,2021-03-17 10:10:53.364464+00:00,2,654,,Don't Cheat,0,0,0,1,4,56,g7q3gnch,0,17,174,0,3,1.914285714,1.75,1.833333333,2,1.5,1.75,1.6,3,3,1.666666667,2,2,2,Female,2,0,14,"Bionengineering, B.Sc.",3,2,18-24,Germany,3
8,20cc9xq0,2021-03-17 10:10:53.364464+00:00,2,668,,Don't Cheat,0,0,0,1,4,57,g7q3gnch,0,17,174,0,3,1.914285714,1.75,1.833333333,2,1.5,1.75,1.6,3,3,1.666666667,2,2,2,Female,2,0,14,"Bionengineering, B.Sc.",3,2,18-24,Germany,3
8,20cc9xq0,2021-03-17 10:10:53.364464+00:00,2,682,,Don't Cheat,0,0,0,1,4,58,g7q3gnch,0,17,174,0,3,1.914285714,1.75,1.833333333,2,1.5,1.75,1.6,3,3,1.666666667,2,2,2,Female,2,0,14,"Bionengineering, B.Sc.",3,2,18-24,Germany,3
8,20cc9xq0,2021-03-17 10:10:53.364464+00:00,2,696,,Don't Cheat,0,0,0,1,4,59,g7q3gnch,0,17,174,0,3,1.914285714,1.75,1.833333333,2,1.5,1.75,1.6,3,3,1.666666667,2,2,2,Female,2,0,14,"Bionengineering, B.Sc.",3,2,18-24,Germany,3
8,20cc9xq0,2021-03-17 10:10:53.364464+00:00,2,706,,Don't Cheat,0,0,0,1,4,60,g7q3gnch,0,17,174,0,3,1.914285714,1.75,1.833333333,2,1.5,1.75,1.6,3,3,1.666666667,2,2,2,Female,2,0,14,"Bionengineering, B.Sc.",3,2,18-24,Germany,3
8,20cc9xq0,2021-03-17 10:10:53.364464+00:00,2,720,,Don't Cheat,0,0,0,1,4,61,g7q3gnch,0,17,174,0,3,1.914285714,1.75,1.833333333,2,1.5,1.75,1.6,3,3,1.666666667,2,2,2,Female,2,0,14,"Bionengineering, B.Sc.",3,2,18-24,Germany,3
8,20cc9xq0,2021-03-17 10:10:53.364464+00:00,2,734,,Don't Cheat,0,0,0,1,4,62,g7q3gnch,0,17,174,0,3,1.914285714,1.75,1.833333333,2,1.5,1.75,1.6,3,3,1.666666667,2,2,2,Female,2,0,14,"Bionengineering, B.Sc.",3,2,18-24,Germany,3
8,20cc9xq0,2021-03-17 10:10:53.364464+00:00,2,744,,Don't Cheat,0,0,0,1,4,63,g7q3gnch,0,17,174,0,3,1.914285714,1.75,1.833333333,2,1.5,1.75,1.6,3,3,1.666666667,2,2,2,Female,2,0,14,"Bionengineering, B.Sc.",3,2,18-24,Germany,3
8,20cc9xq0,2021-03-17 10:10:53.364464+00:00,2,758,,Don't Cheat,0,0,0,1,4,64,g7q3gnch,0,17,174,0,3,1.914285714,1.75,1.833333333,2,1.5,1.75,1.6,3,3,1.666666667,2,2,2,Female,2,0,14,"Bionengineering, B.Sc.",3,2,18-24,Germany,3
8,20cc9xq0,2021-03-17 10:10:53.364464+00:00,2,772,,Don't Cheat,0,0,0,1,4,65,g7q3gnch,0,17,174,0,3,1.914285714,1.75,1.833333333,2,1.5,1.75,1.6,3,3,1.666666667,2,2,2,Female,2,0,14,"Bionengineering, B.Sc.",3,2,18-24,Germany,3
8,20cc9xq0,2021-03-17 10:10:53.364464+00:00,2,782,,Don't Cheat,0,0,0,1,4,66,g7q3gnch,0,17,174,0,3,1.914285714,1.75,1.833333333,2,1.5,1.75,1.6,3,3,1.666666667,2,2,2,Female,2,0,14,"Bionengineering, B.Sc.",3,2,18-24,Germany,3
8,20cc9xq0,2021-03-17 10:10:53.364464+00:00,2,792,,Don't Cheat,0,0,0,1,4,67,g7q3gnch,0,17,174,0,3,1.914285714,1.75,1.833333333,2,1.5,1.75,1.6,3,3,1.666666667,2,2,2,Female,2,0,14,"Bionengineering, B.Sc.",3,2,18-24,Germany,3
8,20cc9xq0,2021-03-17 10:10:53.364464+00:00,2,806,,Don't Cheat,0,0,0,1,4,68,g7q3gnch,0,17,174,0,3,1.914285714,1.75,1.833333333,2,1.5,1.75,1.6,3,3,1.666666667,2,2,2,Female,2,0,14,"Bionengineering, B.Sc.",3,2,18-24,Germany,3
8,20cc9xq0,2021-03-17 10:10:53.364464+00:00,2,820,,Don't Cheat,0,0,0,1,4,69,g7q3gnch,0,17,174,0,3,1.914285714,1.75,1.833333333,2,1.5,1.75,1.6,3,3,1.666666667,2,2,2,Female,2,0,14,"Bionengineering, B.Sc.",3,2,18-24,Germany,3
8,20cc9xq0,2021-03-17 10:10:53.364464+00:00,2,834,,Don't Cheat,0,0,0,1,4,70,g7q3gnch,0,17,174,0,3,1.914285714,1.75,1.833333333,2,1.5,1.75,1.6,3,3,1.666666667,2,2,2,Female,2,0,14,"Bionengineering, B.Sc.",3,2,18-24,Germany,3
1,265l99ai,2021-03-15 10:12:08.650239+00:00,1,14,Don't Control,,0,0,0,1,1,1,7igvdhlu,1,15,151,0,0,2.6,3,3,2.666666667,2.5,2,2,2.5,2.5,1.666666667,4.5,5,1,Female,2,14,0,International Taxation and Law,23,2,18-24,Germany,0
1,265l99ai,2021-03-15 10:12:08.650239+00:00,1,28,Don't Control,,0,0,0,1,1,2,7igvdhlu,1,15,151,0,0,2.6,3,3,2.666666667,2.5,2,2,2.5,2.5,1.666666667,4.5,5,1,Female,2,14,0,International Taxation and Law,23,2,18-24,Germany,0
1,265l99ai,2021-03-15 10:12:08.650239+00:00,1,42,Don't Control,,0,0,0,1,1,3,7igvdhlu,1,15,151,0,0,2.6,3,3,2.666666667,2.5,2,2,2.5,2.5,1.666666667,4.5,5,1,Female,2,14,0,International Taxation and Law,23,2,18-24,Germany,0
1,265l99ai,2021-03-15 10:12:08.650239+00:00,1,56,Don't Control,,0,0,0,1,1,4,7igvdhlu,1,15,151,0,0,2.6,3,3,2.666666667,2.5,2,2,2.5,2.5,1.666666667,4.5,5,1,Female,2,14,0,International Taxation and Law,23,2,18-24,Germany,0
1,265l99ai,2021-03-15 10:12:08.650239+00:00,1,70,Don't Control,,0,0,0,1,1,5,7igvdhlu,1,15,151,0,0,2.6,3,3,2.666666667,2.5,2,2,2.5,2.5,1.666666667,4.5,5,1,Female,2,14,0,International Taxation and Law,23,2,18-24,Germany,0
1,265l99ai,2021-03-15 10:12:08.650239+00:00,1,73,Don't Control,,0,0,0,1,1,6,7igvdhlu,1,15,151,0,0,2.6,3,3,2.666666667,2.5,2,2,2.5,2.5,1.666666667,4.5,5,1,Female,2,14,0,International Taxation and Law,23,2,18-24,Germany,0
1,265l99ai,2021-03-15 10:12:08.650239+00:00,1,84,Control,,1,0,1,0,1,7,7igvdhlu,1,15,151,1,0,2.6,3,3,2.666666667,2.5,2,2,2.5,2.5,1.666666667,4.5,5,1,Female,2,11,0,International Taxation and Law,23,2,18-24,Germany,1
1,265l99ai,2021-03-15 10:12:08.650239+00:00,1,98,Don't Control,,0,0,0,1,1,8,7igvdhlu,1,15,151,1,0,2.6,3,3,2.666666667,2.5,2,2,2.5,2.5,1.666666667,4.5,5,1,Female,2,14,0,International Taxation and Law,23,2,18-24,Germany,1
1,265l99ai,2021-03-15 10:12:08.650239+00:00,1,112,Don't Control,,0,0,0,1,1,9,7igvdhlu,1,15,151,1,0,2.6,3,3,2.666666667,2.5,2,2,2.5,2.5,1.666666667,4.5,5,1,Female,2,14,0,International Taxation and Law,23,2,18-24,Germany,1
1,265l99ai,2021-03-15 10:12:08.650239+00:00,1,126,Don't Control,,0,0,0,1,1,10,7igvdhlu,1,15,151,1,0,2.6,3,3,2.666666667,2.5,2,2,2.5,2.5,1.666666667,4.5,5,1,Female,2,14,0,International Taxation and Law,23,2,18-24,Germany,1
1,265l99ai,2021-03-15 10:12:08.650239+00:00,1,140,Don't Control,,0,0,0,1,1,11,7igvdhlu,1,15,151,1,0,2.6,3,3,2.666666667,2.5,2,2,2.5,2.5,1.666666667,4.5,5,1,Female,2,14,0,International Taxation and Law,23,2,18-24,Germany,1
1,265l99ai,2021-03-15 10:12:08.650239+00:00,1,154,Don't Control,,0,0,0,1,1,12,7igvdhlu,1,15,151,1,0,2.6,3,3,2.666666667,2.5,2,2,2.5,2.5,1.666666667,4.5,5,1,Female,2,14,0,International Taxation and Law,23,2,18-24,Germany,1
1,265l99ai,2021-03-15 10:12:08.650239+00:00,1,168,Don't Control,,0,0,0,1,1,13,7igvdhlu,1,15,151,1,0,2.6,3,3,2.666666667,2.5,2,2,2.5,2.5,1.666666667,4.5,5,1,Female,2,14,0,International Taxation and Law,23,2,18-24,Germany,1
1,265l99ai,2021-03-15 10:12:08.650239+00:00,1,182,Don't Control,,0,0,0,1,1,14,7igvdhlu,1,15,151,1,0,2.6,3,3,2.666666667,2.5,2,2,2.5,2.5,1.666666667,4.5,5,1,Female,2,14,0,International Taxation and Law,23,2,18-24,Germany,1
1,265l99ai,2021-03-15 10:12:08.650239+00:00,1,196,Don't Control,,0,0,0,1,1,15,7igvdhlu,1,15,151,1,0,2.6,3,3,2.666666667,2.5,2,2,2.5,2.5,1.666666667,4.5,5,1,Female,2,14,0,International Taxation and Law,23,2,18-24,Germany,1
1,265l99ai,2021-03-15 10:12:08.650239+00:00,1,210,Don't Control,,0,0,0,1,1,16,7igvdhlu,1,15,151,1,0,2.6,3,3,2.666666667,2.5,2,2,2.5,2.5,1.666666667,4.5,5,1,Female,2,14,0,International Taxation and Law,23,2,18-24,Germany,1
1,265l99ai,2021-03-15 10:12:08.650239+00:00,1,224,Don't Control,,0,0,0,1,1,17,7igvdhlu,1,15,151,1,0,2.6,3,3,2.666666667,2.5,2,2,2.5,2.5,1.666666667,4.5,5,1,Female,2,14,0,International Taxation and Law,23,2,18-24,Germany,1
1,265l99ai,2021-03-15 10:12:08.650239+00:00,1,238,Don't Control,,0,0,0,1,1,18,7igvdhlu,1,15,151,1,0,2.6,3,3,2.666666667,2.5,2,2,2.5,2.5,1.666666667,4.5,5,1,Female,2,14,0,International Taxation and Law,23,2,18-24,Germany,1
1,265l99ai,2021-03-15 10:12:08.650239+00:00,1,252,Don't Control,,0,0,0,1,1,19,7igvdhlu,1,15,151,1,0,2.6,3,3,2.666666667,2.5,2,2,2.5,2.5,1.666666667,4.5,5,1,Female,2,14,0,International Taxation and Law,23,2,18-24,Germany,1
1,265l99ai,2021-03-15 10:12:08.650239+00:00,1,266,Don't Control,,0,0,0,1,1,20,7igvdhlu,1,15,151,1,0,2.6,3,3,2.666666667,2.5,2,2,2.5,2.5,1.666666667,4.5,5,1,Female,2,14,0,International Taxation and Law,23,2,18-24,Germany,1
1,265l99ai,2021-03-15 10:12:08.650239+00:00,1,280,Don't Control,,0,0,0,1,1,21,7igvdhlu,1,15,151,1,0,2.6,3,3,2.666666667,2.5,2,2,2.5,2.5,1.666666667,4.5,5,1,Female,2,14,0,International Taxation and Law,23,2,18-24,Germany,1
1,265l99ai,2021-03-15 10:12:08.650239+00:00,1,294,Don't Control,,0,0,0,1,1,22,7igvdhlu,1,15,151,1,0,2.6,3,3,2.666666667,2.5,2,2,2.5,2.5,1.666666667,4.5,5,1,Female,2,14,0,International Taxation and Law,23,2,18-24,Germany,1
1,265l99ai,2021-03-15 10:12:08.650239+00:00,1,308,Don't Control,,0,0,0,1,1,23,7igvdhlu,1,15,151,1,0,2.6,3,3,2.666666667,2.5,2,2,2.5,2.5,1.666666667,4.5,5,1,Female,2,14,0,International Taxation and Law,23,2,18-24,Germany,1
1,265l99ai,2021-03-15 10:12:08.650239+00:00,1,322,Don't Control,,0,0,0,1,1,24,7igvdhlu,1,15,151,1,0,2.6,3,3,2.666666667,2.5,2,2,2.5,2.5,1.666666667,4.5,5,1,Female,2,14,0,International Taxation and Law,23,2,18-24,Germany,1
1,265l99ai,2021-03-15 10:12:08.650239+00:00,1,336,Don't Control,,0,0,0,1,1,25,7igvdhlu,1,15,151,1,0,2.6,3,3,2.666666667,2.5,2,2,2.5,2.5,1.666666667,4.5,5,1,Female,2,14,0,International Taxation and Law,23,2,18-24,Germany,1
1,265l99ai,2021-03-15 10:12:08.650239+00:00,1,350,Don't Control,,0,0,0,1,1,26,7igvdhlu,1,15,151,1,0,2.6,3,3,2.666666667,2.5,2,2,2.5,2.5,1.666666667,4.5,5,1,Female,2,14,0,International Taxation and Law,23,2,18-24,Germany,1
1,265l99ai,2021-03-15 10:12:08.650239+00:00,1,364,Don't Control,,0,0,0,1,1,27,7igvdhlu,1,15,151,1,0,2.6,3,3,2.666666667,2.5,2,2,2.5,2.5,1.666666667,4.5,5,1,Female,2,14,0,International Taxation and Law,23,2,18-24,Germany,1
1,265l99ai,2021-03-15 10:12:08.650239+00:00,1,378,Don't Control,,0,0,0,1,1,28,7igvdhlu,1,15,151,1,0,2.6,3,3,2.666666667,2.5,2,2,2.5,2.5,1.666666667,4.5,5,1,Female,2,14,0,International Taxation and Law,23,2,18-24,Germany,1
1,265l99ai,2021-03-15 10:12:08.650239+00:00,1,392,Don't Control,,0,0,0,1,1,29,7igvdhlu,1,15,151,1,0,2.6,3,3,2.666666667,2.5,2,2,2.5,2.5,1.666666667,4.5,5,1,Female,2,14,0,International Taxation and Law,23,2,18-24,Germany,1
1,265l99ai,2021-03-15 10:12:08.650239+00:00,1,406,Don't Control,,0,0,0,1,1,30,7igvdhlu,1,15,151,1,0,2.6,3,3,2.666666667,2.5,2,2,2.5,2.5,1.666666667,4.5,5,1,Female,2,14,0,International Taxation and Law,23,2,18-24,Germany,1
1,265l99ai,2021-03-15 10:12:08.650239+00:00,1,420,Don't Control,,0,0,0,1,1,31,7igvdhlu,1,15,151,1,0,2.6,3,3,2.666666667,2.5,2,2,2.5,2.5,1.666666667,4.5,5,1,Female,2,14,0,International Taxation and Law,23,2,18-24,Germany,1
1,265l99ai,2021-03-15 10:12:08.650239+00:00,1,434,Don't Control,,0,0,0,1,1,32,7igvdhlu,1,15,151,1,0,2.6,3,3,2.666666667,2.5,2,2,2.5,2.5,1.666666667,4.5,5,1,Female,2,14,0,International Taxation and Law,23,2,18-24,Germany,1
1,265l99ai,2021-03-15 10:12:08.650239+00:00,1,448,Don't Control,,0,0,0,1,1,33,7igvdhlu,1,15,151,1,0,2.6,3,3,2.666666667,2.5,2,2,2.5,2.5,1.666666667,4.5,5,1,Female,2,14,0,International Taxation and Law,23,2,18-24,Germany,1
1,265l99ai,2021-03-15 10:12:08.650239+00:00,1,462,Don't Control,,0,0,0,1,1,34,7igvdhlu,1,15,151,1,0,2.6,3,3,2.666666667,2.5,2,2,2.5,2.5,1.666666667,4.5,5,1,Female,2,14,0,International Taxation and Law,23,2,18-24,Germany,1
1,265l99ai,2021-03-15 10:12:08.650239+00:00,1,476,Don't Control,,0,0,0,1,1,35,7igvdhlu,1,15,151,1,0,2.6,3,3,2.666666667,2.5,2,2,2.5,2.5,1.666666667,4.5,5,1,Female,2,14,0,International Taxation and Law,23,2,18-24,Germany,1
1,265l99ai,2021-03-15 10:12:08.650239+00:00,1,490,Don't Control,,0,0,0,1,1,36,7igvdhlu,1,15,151,1,0,2.6,3,3,2.666666667,2.5,2,2,2.5,2.5,1.666666667,4.5,5,1,Female,2,14,0,International Taxation and Law,23,2,18-24,Germany,1
1,265l99ai,2021-03-15 10:12:08.650239+00:00,1,504,Don't Control,,0,0,0,1,1,37,7igvdhlu,1,15,151,1,0,2.6,3,3,2.666666667,2.5,2,2,2.5,2.5,1.666666667,4.5,5,1,Female,2,14,0,International Taxation and Law,23,2,18-24,Germany,1
1,265l99ai,2021-03-15 10:12:08.650239+00:00,1,518,Don't Control,,0,0,0,1,1,38,7igvdhlu,1,15,151,1,0,2.6,3,3,2.666666667,2.5,2,2,2.5,2.5,1.666666667,4.5,5,1,Female,2,14,0,International Taxation and Law,23,2,18-24,Germany,1
1,265l99ai,2021-03-15 10:12:08.650239+00:00,1,532,Don't Control,,0,0,0,1,1,39,7igvdhlu,1,15,151,1,0,2.6,3,3,2.666666667,2.5,2,2,2.5,2.5,1.666666667,4.5,5,1,Female,2,14,0,International Taxation and Law,23,2,18-24,Germany,1
1,265l99ai,2021-03-15 10:12:08.650239+00:00,1,546,Don't Control,,0,0,0,1,1,40,7igvdhlu,1,15,151,1,0,2.6,3,3,2.666666667,2.5,2,2,2.5,2.5,1.666666667,4.5,5,1,Female,2,14,0,International Taxation and Law,23,2,18-24,Germany,1
1,265l99ai,2021-03-15 10:12:08.650239+00:00,1,560,Don't Control,,0,0,0,1,1,41,7igvdhlu,1,15,151,1,0,2.6,3,3,2.666666667,2.5,2,2,2.5,2.5,1.666666667,4.5,5,1,Female,2,14,0,International Taxation and Law,23,2,18-24,Germany,1
1,265l99ai,2021-03-15 10:12:08.650239+00:00,1,574,Don't Control,,0,0,0,1,1,42,7igvdhlu,1,15,151,1,0,2.6,3,3,2.666666667,2.5,2,2,2.5,2.5,1.666666667,4.5,5,1,Female,2,14,0,International Taxation and Law,23,2,18-24,Germany,1
1,265l99ai,2021-03-15 10:12:08.650239+00:00,1,588,Don't Control,,0,0,0,1,1,43,7igvdhlu,1,15,151,1,0,2.6,3,3,2.666666667,2.5,2,2,2.5,2.5,1.666666667,4.5,5,1,Female,2,14,0,International Taxation and Law,23,2,18-24,Germany,1
1,265l99ai,2021-03-15 10:12:08.650239+00:00,1,602,Don't Control,,0,0,0,1,1,44,7igvdhlu,1,15,151,1,0,2.6,3,3,2.666666667,2.5,2,2,2.5,2.5,1.666666667,4.5,5,1,Female,2,14,0,International Taxation and Law,23,2,18-24,Germany,1
1,265l99ai,2021-03-15 10:12:08.650239+00:00,1,616,Don't Control,,0,0,0,1,1,45,7igvdhlu,1,15,151,1,0,2.6,3,3,2.666666667,2.5,2,2,2.5,2.5,1.666666667,4.5,5,1,Female,2,14,0,International Taxation and Law,23,2,18-24,Germany,1
1,265l99ai,2021-03-15 10:12:08.650239+00:00,1,630,Don't Control,,0,0,0,1,1,46,7igvdhlu,1,15,151,1,0,2.6,3,3,2.666666667,2.5,2,2,2.5,2.5,1.666666667,4.5,5,1,Female,2,14,0,International Taxation and Law,23,2,18-24,Germany,1
1,265l99ai,2021-03-15 10:12:08.650239+00:00,1,644,Don't Control,,0,0,0,1,1,47,7igvdhlu,1,15,151,1,0,2.6,3,3,2.666666667,2.5,2,2,2.5,2.5,1.666666667,4.5,5,1,Female,2,14,0,International Taxation and Law,23,2,18-24,Germany,1
1,265l99ai,2021-03-15 10:12:08.650239+00:00,1,658,Don't Control,,0,0,0,1,1,48,7igvdhlu,1,15,151,1,0,2.6,3,3,2.666666667,2.5,2,2,2.5,2.5,1.666666667,4.5,5,1,Female,2,14,0,International Taxation and Law,23,2,18-24,Germany,1
1,265l99ai,2021-03-15 10:12:08.650239+00:00,1,672,Don't Control,,0,0,0,1,1,49,7igvdhlu,1,15,151,1,0,2.6,3,3,2.666666667,2.5,2,2,2.5,2.5,1.666666667,4.5,5,1,Female,2,14,0,International Taxation and Law,23,2,18-24,Germany,1
1,265l99ai,2021-03-15 10:12:08.650239+00:00,1,686,Don't Control,,0,0,0,1,1,50,7igvdhlu,1,15,151,1,0,2.6,3,3,2.666666667,2.5,2,2,2.5,2.5,1.666666667,4.5,5,1,Female,2,14,0,International Taxation and Law,23,2,18-24,Germany,1
1,265l99ai,2021-03-15 10:12:08.650239+00:00,1,700,Don't Control,,0,0,0,1,1,51,7igvdhlu,1,15,151,1,0,2.6,3,3,2.666666667,2.5,2,2,2.5,2.5,1.666666667,4.5,5,1,Female,2,14,0,International Taxation and Law,23,2,18-24,Germany,1
1,265l99ai,2021-03-15 10:12:08.650239+00:00,1,714,Don't Control,,0,0,0,1,1,52,7igvdhlu,1,15,151,1,0,2.6,3,3,2.666666667,2.5,2,2,2.5,2.5,1.666666667,4.5,5,1,Female,2,14,0,International Taxation and Law,23,2,18-24,Germany,1
1,265l99ai,2021-03-15 10:12:08.650239+00:00,1,728,Don't Control,,0,0,0,1,1,53,7igvdhlu,1,15,151,1,0,2.6,3,3,2.666666667,2.5,2,2,2.5,2.5,1.666666667,4.5,5,1,Female,2,14,0,International Taxation and Law,23,2,18-24,Germany,1
1,265l99ai,2021-03-15 10:12:08.650239+00:00,1,742,Don't Control,,0,0,0,1,1,54,7igvdhlu,1,15,151,1,0,2.6,3,3,2.666666667,2.5,2,2,2.5,2.5,1.666666667,4.5,5,1,Female,2,14,0,International Taxation and Law,23,2,18-24,Germany,1
1,265l99ai,2021-03-15 10:12:08.650239+00:00,1,756,Don't Control,,0,0,0,1,1,55,7igvdhlu,1,15,151,1,0,2.6,3,3,2.666666667,2.5,2,2,2.5,2.5,1.666666667,4.5,5,1,Female,2,14,0,International Taxation and Law,23,2,18-24,Germany,1
1,265l99ai,2021-03-15 10:12:08.650239+00:00,1,770,Don't Control,,0,0,0,1,1,56,7igvdhlu,1,15,151,1,0,2.6,3,3,2.666666667,2.5,2,2,2.5,2.5,1.666666667,4.5,5,1,Female,2,14,0,International Taxation and Law,23,2,18-24,Germany,1
1,265l99ai,2021-03-15 10:12:08.650239+00:00,1,784,Don't Control,,0,0,0,1,1,57,7igvdhlu,1,15,151,1,0,2.6,3,3,2.666666667,2.5,2,2,2.5,2.5,1.666666667,4.5,5,1,Female,2,14,0,International Taxation and Law,23,2,18-24,Germany,1
1,265l99ai,2021-03-15 10:12:08.650239+00:00,1,798,Don't Control,,0,0,0,1,1,58,7igvdhlu,1,15,151,1,0,2.6,3,3,2.666666667,2.5,2,2,2.5,2.5,1.666666667,4.5,5,1,Female,2,14,0,International Taxation and Law,23,2,18-24,Germany,1
1,265l99ai,2021-03-15 10:12:08.650239+00:00,1,812,Don't Control,,0,0,0,1,1,59,7igvdhlu,1,15,151,1,0,2.6,3,3,2.666666667,2.5,2,2,2.5,2.5,1.666666667,4.5,5,1,Female,2,14,0,International Taxation and Law,23,2,18-24,Germany,1
1,265l99ai,2021-03-15 10:12:08.650239+00:00,1,826,Don't Control,,0,0,0,1,1,60,7igvdhlu,1,15,151,1,0,2.6,3,3,2.666666667,2.5,2,2,2.5,2.5,1.666666667,4.5,5,1,Female,2,14,0,International Taxation and Law,23,2,18-24,Germany,1
1,265l99ai,2021-03-15 10:12:08.650239+00:00,1,840,Don't Control,,0,0,0,1,1,61,7igvdhlu,1,15,151,1,0,2.6,3,3,2.666666667,2.5,2,2,2.5,2.5,1.666666667,4.5,5,1,Female,2,14,0,International Taxation and Law,23,2,18-24,Germany,1
1,265l99ai,2021-03-15 10:12:08.650239+00:00,1,854,Don't Control,,0,0,0,1,1,62,7igvdhlu,1,15,151,1,0,2.6,3,3,2.666666667,2.5,2,2,2.5,2.5,1.666666667,4.5,5,1,Female,2,14,0,International Taxation and Law,23,2,18-24,Germany,1
1,265l99ai,2021-03-15 10:12:08.650239+00:00,1,868,Don't Control,,0,0,0,1,1,63,7igvdhlu,1,15,151,1,0,2.6,3,3,2.666666667,2.5,2,2,2.5,2.5,1.666666667,4.5,5,1,Female,2,14,0,International Taxation and Law,23,2,18-24,Germany,1
1,265l99ai,2021-03-15 10:12:08.650239+00:00,1,882,Don't Control,,0,0,0,1,1,64,7igvdhlu,1,15,151,1,0,2.6,3,3,2.666666667,2.5,2,2,2.5,2.5,1.666666667,4.5,5,1,Female,2,14,0,International Taxation and Law,23,2,18-24,Germany,1
1,265l99ai,2021-03-15 10:12:08.650239+00:00,1,896,Don't Control,,0,0,0,1,1,65,7igvdhlu,1,15,151,1,0,2.6,3,3,2.666666667,2.5,2,2,2.5,2.5,1.666666667,4.5,5,1,Female,2,14,0,International Taxation and Law,23,2,18-24,Germany,1
1,265l99ai,2021-03-15 10:12:08.650239+00:00,1,910,Don't Control,,0,0,0,1,1,66,7igvdhlu,1,15,151,1,0,2.6,3,3,2.666666667,2.5,2,2,2.5,2.5,1.666666667,4.5,5,1,Female,2,14,0,International Taxation and Law,23,2,18-24,Germany,1
1,265l99ai,2021-03-15 10:12:08.650239+00:00,1,924,Don't Control,,0,0,0,1,1,67,7igvdhlu,1,15,151,1,0,2.6,3,3,2.666666667,2.5,2,2,2.5,2.5,1.666666667,4.5,5,1,Female,2,14,0,International Taxation and Law,23,2,18-24,Germany,1
1,265l99ai,2021-03-15 10:12:08.650239+00:00,1,938,Don't Control,,0,0,0,1,1,68,7igvdhlu,1,15,151,1,0,2.6,3,3,2.666666667,2.5,2,2,2.5,2.5,1.666666667,4.5,5,1,Female,2,14,0,International Taxation and Law,23,2,18-24,Germany,1
1,265l99ai,2021-03-15 10:12:08.650239+00:00,1,952,Don't Control,,0,0,0,1,1,69,7igvdhlu,1,15,151,1,0,2.6,3,3,2.666666667,2.5,2,2,2.5,2.5,1.666666667,4.5,5,1,Female,2,14,0,International Taxation and Law,23,2,18-24,Germany,1
1,265l99ai,2021-03-15 10:12:08.650239+00:00,1,966,Don't Control,,0,0,0,1,1,70,7igvdhlu,1,15,151,1,0,2.6,3,3,2.666666667,2.5,2,2,2.5,2.5,1.666666667,4.5,5,1,Female,2,14,0,International Taxation and Law,23,2,18-24,Germany,1
2,2fsj9qvt,2021-03-15 10:12:09.038959+00:00,2,14,,Don't Cheat,0,0,0,1,1,1,7igvdhlu,1,15,151,0,0,2.228571429,2,2.5,2.333333333,1.5,3.5,1.6,2,1.5,2.333333333,3,1,2,Male,1,0,14,"Agribusiness, B.A.",1,2,18-24,Viet Nam,0
2,2fsj9qvt,2021-03-15 10:12:09.038959+00:00,2,28,,Don't Cheat,0,0,0,1,1,2,7igvdhlu,1,15,151,0,0,2.228571429,2,2.5,2.333333333,1.5,3.5,1.6,2,1.5,2.333333333,3,1,2,Male,1,0,14,"Agribusiness, B.A.",1,2,18-24,Viet Nam,0
2,2fsj9qvt,2021-03-15 10:12:09.038959+00:00,2,42,,Don't Cheat,0,0,0,1,1,3,7igvdhlu,1,15,151,0,0,2.228571429,2,2.5,2.333333333,1.5,3.5,1.6,2,1.5,2.333333333,3,1,2,Male,1,0,14,"Agribusiness, B.A.",1,2,18-24,Viet Nam,0
2,2fsj9qvt,2021-03-15 10:12:09.038959+00:00,2,56,,Don't Cheat,0,0,0,1,1,4,7igvdhlu,1,15,151,0,0,2.228571429,2,2.5,2.333333333,1.5,3.5,1.6,2,1.5,2.333333333,3,1,2,Male,1,0,14,"Agribusiness, B.A.",1,2,18-24,Viet Nam,0
2,2fsj9qvt,2021-03-15 10:12:09.038959+00:00,2,70,,Don't Cheat,0,0,0,1,1,5,7igvdhlu,1,15,151,0,0,2.228571429,2,2.5,2.333333333,1.5,3.5,1.6,2,1.5,2.333333333,3,1,2,Male,1,0,14,"Agribusiness, B.A.",1,2,18-24,Viet Nam,0
2,2fsj9qvt,2021-03-15 10:12:09.038959+00:00,2,86,,Cheat,0,1,1,0,1,6,7igvdhlu,1,15,151,0,1,2.228571429,2,2.5,2.333333333,1.5,3.5,1.6,2,1.5,2.333333333,3,1,2,Male,1,0,16,"Agribusiness, B.A.",1,2,18-24,Viet Nam,1
2,2fsj9qvt,2021-03-15 10:12:09.038959+00:00,2,96,,Don't Cheat,0,0,0,1,1,7,7igvdhlu,1,15,151,0,1,2.228571429,2,2.5,2.333333333,1.5,3.5,1.6,2,1.5,2.333333333,3,1,2,Male,1,0,14,"Agribusiness, B.A.",1,2,18-24,Viet Nam,1
2,2fsj9qvt,2021-03-15 10:12:09.038959+00:00,2,110,,Don't Cheat,0,0,0,1,1,8,7igvdhlu,1,15,151,0,1,2.228571429,2,2.5,2.333333333,1.5,3.5,1.6,2,1.5,2.333333333,3,1,2,Male,1,0,14,"Agribusiness, B.A.",1,2,18-24,Viet Nam,1
2,2fsj9qvt,2021-03-15 10:12:09.038959+00:00,2,124,,Don't Cheat,0,0,0,1,1,9,7igvdhlu,1,15,151,0,1,2.228571429,2,2.5,2.333333333,1.5,3.5,1.6,2,1.5,2.333333333,3,1,2,Male,1,0,14,"Agribusiness, B.A.",1,2,18-24,Viet Nam,1
2,2fsj9qvt,2021-03-15 10:12:09.038959+00:00,2,138,,Don't Cheat,0,0,0,1,1,10,7igvdhlu,1,15,151,0,1,2.228571429,2,2.5,2.333333333,1.5,3.5,1.6,2,1.5,2.333333333,3,1,2,Male,1,0,14,"Agribusiness, B.A.",1,2,18-24,Viet Nam,1
2,2fsj9qvt,2021-03-15 10:12:09.038959+00:00,2,152,,Don't Cheat,0,0,0,1,1,11,7igvdhlu,1,15,151,0,1,2.228571429,2,2.5,2.333333333,1.5,3.5,1.6,2,1.5,2.333333333,3,1,2,Male,1,0,14,"Agribusiness, B.A.",1,2,18-24,Viet Nam,1
2,2fsj9qvt,2021-03-15 10:12:09.038959+00:00,2,166,,Don't Cheat,0,0,0,1,1,12,7igvdhlu,1,15,151,0,1,2.228571429,2,2.5,2.333333333,1.5,3.5,1.6,2,1.5,2.333333333,3,1,2,Male,1,0,14,"Agribusiness, B.A.",1,2,18-24,Viet Nam,1
2,2fsj9qvt,2021-03-15 10:12:09.038959+00:00,2,180,,Don't Cheat,0,0,0,1,1,13,7igvdhlu,1,15,151,0,1,2.228571429,2,2.5,2.333333333,1.5,3.5,1.6,2,1.5,2.333333333,3,1,2,Male,1,0,14,"Agribusiness, B.A.",1,2,18-24,Viet Nam,1
2,2fsj9qvt,2021-03-15 10:12:09.038959+00:00,2,194,,Don't Cheat,0,0,0,1,1,14,7igvdhlu,1,15,151,0,1,2.228571429,2,2.5,2.333333333,1.5,3.5,1.6,2,1.5,2.333333333,3,1,2,Male,1,0,14,"Agribusiness, B.A.",1,2,18-24,Viet Nam,1
2,2fsj9qvt,2021-03-15 10:12:09.038959+00:00,2,208,,Don't Cheat,0,0,0,1,1,15,7igvdhlu,1,15,151,0,1,2.228571429,2,2.5,2.333333333,1.5,3.5,1.6,2,1.5,2.333333333,3,1,2,Male,1,0,14,"Agribusiness, B.A.",1,2,18-24,Viet Nam,1
2,2fsj9qvt,2021-03-15 10:12:09.038959+00:00,2,222,,Don't Cheat,0,0,0,1,1,16,7igvdhlu,1,15,151,0,1,2.228571429,2,2.5,2.333333333,1.5,3.5,1.6,2,1.5,2.333333333,3,1,2,Male,1,0,14,"Agribusiness, B.A.",1,2,18-24,Viet Nam,1
2,2fsj9qvt,2021-03-15 10:12:09.038959+00:00,2,236,,Don't Cheat,0,0,0,1,1,17,7igvdhlu,1,15,151,0,1,2.228571429,2,2.5,2.333333333,1.5,3.5,1.6,2,1.5,2.333333333,3,1,2,Male,1,0,14,"Agribusiness, B.A.",1,2,18-24,Viet Nam,1
2,2fsj9qvt,2021-03-15 10:12:09.038959+00:00,2,250,,Don't Cheat,0,0,0,1,1,18,7igvdhlu,1,15,151,0,1,2.228571429,2,2.5,2.333333333,1.5,3.5,1.6,2,1.5,2.333333333,3,1,2,Male,1,0,14,"Agribusiness, B.A.",1,2,18-24,Viet Nam,1
2,2fsj9qvt,2021-03-15 10:12:09.038959+00:00,2,264,,Don't Cheat,0,0,0,1,1,19,7igvdhlu,1,15,151,0,1,2.228571429,2,2.5,2.333333333,1.5,3.5,1.6,2,1.5,2.333333333,3,1,2,Male,1,0,14,"Agribusiness, B.A.",1,2,18-24,Viet Nam,1
2,2fsj9qvt,2021-03-15 10:12:09.038959+00:00,2,278,,Don't Cheat,0,0,0,1,1,20,7igvdhlu,1,15,151,0,1,2.228571429,2,2.5,2.333333333,1.5,3.5,1.6,2,1.5,2.333333333,3,1,2,Male,1,0,14,"Agribusiness, B.A.",1,2,18-24,Viet Nam,1
2,2fsj9qvt,2021-03-15 10:12:09.038959+00:00,2,292,,Don't Cheat,0,0,0,1,1,21,7igvdhlu,1,15,151,0,1,2.228571429,2,2.5,2.333333333,1.5,3.5,1.6,2,1.5,2.333333333,3,1,2,Male,1,0,14,"Agribusiness, B.A.",1,2,18-24,Viet Nam,1
2,2fsj9qvt,2021-03-15 10:12:09.038959+00:00,2,306,,Don't Cheat,0,0,0,1,1,22,7igvdhlu,1,15,151,0,1,2.228571429,2,2.5,2.333333333,1.5,3.5,1.6,2,1.5,2.333333333,3,1,2,Male,1,0,14,"Agribusiness, B.A.",1,2,18-24,Viet Nam,1
2,2fsj9qvt,2021-03-15 10:12:09.038959+00:00,2,320,,Don't Cheat,0,0,0,1,1,23,7igvdhlu,1,15,151,0,1,2.228571429,2,2.5,2.333333333,1.5,3.5,1.6,2,1.5,2.333333333,3,1,2,Male,1,0,14,"Agribusiness, B.A.",1,2,18-24,Viet Nam,1
2,2fsj9qvt,2021-03-15 10:12:09.038959+00:00,2,334,,Don't Cheat,0,0,0,1,1,24,7igvdhlu,1,15,151,0,1,2.228571429,2,2.5,2.333333333,1.5,3.5,1.6,2,1.5,2.333333333,3,1,2,Male,1,0,14,"Agribusiness, B.A.",1,2,18-24,Viet Nam,1
2,2fsj9qvt,2021-03-15 10:12:09.038959+00:00,2,348,,Don't Cheat,0,0,0,1,1,25,7igvdhlu,1,15,151,0,1,2.228571429,2,2.5,2.333333333,1.5,3.5,1.6,2,1.5,2.333333333,3,1,2,Male,1,0,14,"Agribusiness, B.A.",1,2,18-24,Viet Nam,1
2,2fsj9qvt,2021-03-15 10:12:09.038959+00:00,2,362,,Don't Cheat,0,0,0,1,1,26,7igvdhlu,1,15,151,0,1,2.228571429,2,2.5,2.333333333,1.5,3.5,1.6,2,1.5,2.333333333,3,1,2,Male,1,0,14,"Agribusiness, B.A.",1,2,18-24,Viet Nam,1
2,2fsj9qvt,2021-03-15 10:12:09.038959+00:00,2,376,,Don't Cheat,0,0,0,1,1,27,7igvdhlu,1,15,151,0,1,2.228571429,2,2.5,2.333333333,1.5,3.5,1.6,2,1.5,2.333333333,3,1,2,Male,1,0,14,"Agribusiness, B.A.",1,2,18-24,Viet Nam,1
2,2fsj9qvt,2021-03-15 10:12:09.038959+00:00,2,390,,Don't Cheat,0,0,0,1,1,28,7igvdhlu,1,15,151,0,1,2.228571429,2,2.5,2.333333333,1.5,3.5,1.6,2,1.5,2.333333333,3,1,2,Male,1,0,14,"Agribusiness, B.A.",1,2,18-24,Viet Nam,1
2,2fsj9qvt,2021-03-15 10:12:09.038959+00:00,2,404,,Don't Cheat,0,0,0,1,1,29,7igvdhlu,1,15,151,0,1,2.228571429,2,2.5,2.333333333,1.5,3.5,1.6,2,1.5,2.333333333,3,1,2,Male,1,0,14,"Agribusiness, B.A.",1,2,18-24,Viet Nam,1
2,2fsj9qvt,2021-03-15 10:12:09.038959+00:00,2,418,,Don't Cheat,0,0,0,1,1,30,7igvdhlu,1,15,151,0,1,2.228571429,2,2.5,2.333333333,1.5,3.5,1.6,2,1.5,2.333333333,3,1,2,Male,1,0,14,"Agribusiness, B.A.",1,2,18-24,Viet Nam,1
2,2fsj9qvt,2021-03-15 10:12:09.038959+00:00,2,432,,Don't Cheat,0,0,0,1,1,31,7igvdhlu,1,15,151,0,1,2.228571429,2,2.5,2.333333333,1.5,3.5,1.6,2,1.5,2.333333333,3,1,2,Male,1,0,14,"Agribusiness, B.A.",1,2,18-24,Viet Nam,1
2,2fsj9qvt,2021-03-15 10:12:09.038959+00:00,2,446,,Don't Cheat,0,0,0,1,1,32,7igvdhlu,1,15,151,0,1,2.228571429,2,2.5,2.333333333,1.5,3.5,1.6,2,1.5,2.333333333,3,1,2,Male,1,0,14,"Agribusiness, B.A.",1,2,18-24,Viet Nam,1
2,2fsj9qvt,2021-03-15 10:12:09.038959+00:00,2,460,,Don't Cheat,0,0,0,1,1,33,7igvdhlu,1,15,151,0,1,2.228571429,2,2.5,2.333333333,1.5,3.5,1.6,2,1.5,2.333333333,3,1,2,Male,1,0,14,"Agribusiness, B.A.",1,2,18-24,Viet Nam,1
2,2fsj9qvt,2021-03-15 10:12:09.038959+00:00,2,474,,Don't Cheat,0,0,0,1,1,34,7igvdhlu,1,15,151,0,1,2.228571429,2,2.5,2.333333333,1.5,3.5,1.6,2,1.5,2.333333333,3,1,2,Male,1,0,14,"Agribusiness, B.A.",1,2,18-24,Viet Nam,1
2,2fsj9qvt,2021-03-15 10:12:09.038959+00:00,2,488,,Don't Cheat,0,0,0,1,1,35,7igvdhlu,1,15,151,0,1,2.228571429,2,2.5,2.333333333,1.5,3.5,1.6,2,1.5,2.333333333,3,1,2,Male,1,0,14,"Agribusiness, B.A.",1,2,18-24,Viet Nam,1
2,2fsj9qvt,2021-03-15 10:12:09.038959+00:00,2,502,,Don't Cheat,0,0,0,1,1,36,7igvdhlu,1,15,151,0,1,2.228571429,2,2.5,2.333333333,1.5,3.5,1.6,2,1.5,2.333333333,3,1,2,Male,1,0,14,"Agribusiness, B.A.",1,2,18-24,Viet Nam,1
2,2fsj9qvt,2021-03-15 10:12:09.038959+00:00,2,516,,Don't Cheat,0,0,0,1,1,37,7igvdhlu,1,15,151,0,1,2.228571429,2,2.5,2.333333333,1.5,3.5,1.6,2,1.5,2.333333333,3,1,2,Male,1,0,14,"Agribusiness, B.A.",1,2,18-24,Viet Nam,1
2,2fsj9qvt,2021-03-15 10:12:09.038959+00:00,2,530,,Don't Cheat,0,0,0,1,1,38,7igvdhlu,1,15,151,0,1,2.228571429,2,2.5,2.333333333,1.5,3.5,1.6,2,1.5,2.333333333,3,1,2,Male,1,0,14,"Agribusiness, B.A.",1,2,18-24,Viet Nam,1
2,2fsj9qvt,2021-03-15 10:12:09.038959+00:00,2,544,,Don't Cheat,0,0,0,1,1,39,7igvdhlu,1,15,151,0,1,2.228571429,2,2.5,2.333333333,1.5,3.5,1.6,2,1.5,2.333333333,3,1,2,Male,1,0,14,"Agribusiness, B.A.",1,2,18-24,Viet Nam,1
2,2fsj9qvt,2021-03-15 10:12:09.038959+00:00,2,558,,Don't Cheat,0,0,0,1,1,40,7igvdhlu,1,15,151,0,1,2.228571429,2,2.5,2.333333333,1.5,3.5,1.6,2,1.5,2.333333333,3,1,2,Male,1,0,14,"Agribusiness, B.A.",1,2,18-24,Viet Nam,1
2,2fsj9qvt,2021-03-15 10:12:09.038959+00:00,2,572,,Don't Cheat,0,0,0,1,1,41,7igvdhlu,1,15,151,0,1,2.228571429,2,2.5,2.333333333,1.5,3.5,1.6,2,1.5,2.333333333,3,1,2,Male,1,0,14,"Agribusiness, B.A.",1,2,18-24,Viet Nam,1
2,2fsj9qvt,2021-03-15 10:12:09.038959+00:00,2,586,,Don't Cheat,0,0,0,1,1,42,7igvdhlu,1,15,151,0,1,2.228571429,2,2.5,2.333333333,1.5,3.5,1.6,2,1.5,2.333333333,3,1,2,Male,1,0,14,"Agribusiness, B.A.",1,2,18-24,Viet Nam,1
2,2fsj9qvt,2021-03-15 10:12:09.038959+00:00,2,600,,Don't Cheat,0,0,0,1,1,43,7igvdhlu,1,15,151,0,1,2.228571429,2,2.5,2.333333333,1.5,3.5,1.6,2,1.5,2.333333333,3,1,2,Male,1,0,14,"Agribusiness, B.A.",1,2,18-24,Viet Nam,1
2,2fsj9qvt,2021-03-15 10:12:09.038959+00:00,2,614,,Don't Cheat,0,0,0,1,1,44,7igvdhlu,1,15,151,0,1,2.228571429,2,2.5,2.333333333,1.5,3.5,1.6,2,1.5,2.333333333,3,1,2,Male,1,0,14,"Agribusiness, B.A.",1,2,18-24,Viet Nam,1
2,2fsj9qvt,2021-03-15 10:12:09.038959+00:00,2,628,,Don't Cheat,0,0,0,1,1,45,7igvdhlu,1,15,151,0,1,2.228571429,2,2.5,2.333333333,1.5,3.5,1.6,2,1.5,2.333333333,3,1,2,Male,1,0,14,"Agribusiness, B.A.",1,2,18-24,Viet Nam,1
2,2fsj9qvt,2021-03-15 10:12:09.038959+00:00,2,642,,Don't Cheat,0,0,0,1,1,46,7igvdhlu,1,15,151,0,1,2.228571429,2,2.5,2.333333333,1.5,3.5,1.6,2,1.5,2.333333333,3,1,2,Male,1,0,14,"Agribusiness, B.A.",1,2,18-24,Viet Nam,1
2,2fsj9qvt,2021-03-15 10:12:09.038959+00:00,2,656,,Don't Cheat,0,0,0,1,1,47,7igvdhlu,1,15,151,0,1,2.228571429,2,2.5,2.333333333,1.5,3.5,1.6,2,1.5,2.333333333,3,1,2,Male,1,0,14,"Agribusiness, B.A.",1,2,18-24,Viet Nam,1
2,2fsj9qvt,2021-03-15 10:12:09.038959+00:00,2,670,,Don't Cheat,0,0,0,1,1,48,7igvdhlu,1,15,151,0,1,2.228571429,2,2.5,2.333333333,1.5,3.5,1.6,2,1.5,2.333333333,3,1,2,Male,1,0,14,"Agribusiness, B.A.",1,2,18-24,Viet Nam,1
2,2fsj9qvt,2021-03-15 10:12:09.038959+00:00,2,684,,Don't Cheat,0,0,0,1,1,49,7igvdhlu,1,15,151,0,1,2.228571429,2,2.5,2.333333333,1.5,3.5,1.6,2,1.5,2.333333333,3,1,2,Male,1,0,14,"Agribusiness, B.A.",1,2,18-24,Viet Nam,1
2,2fsj9qvt,2021-03-15 10:12:09.038959+00:00,2,698,,Don't Cheat,0,0,0,1,1,50,7igvdhlu,1,15,151,0,1,2.228571429,2,2.5,2.333333333,1.5,3.5,1.6,2,1.5,2.333333333,3,1,2,Male,1,0,14,"Agribusiness, B.A.",1,2,18-24,Viet Nam,1
2,2fsj9qvt,2021-03-15 10:12:09.038959+00:00,2,712,,Don't Cheat,0,0,0,1,1,51,7igvdhlu,1,15,151,0,1,2.228571429,2,2.5,2.333333333,1.5,3.5,1.6,2,1.5,2.333333333,3,1,2,Male,1,0,14,"Agribusiness, B.A.",1,2,18-24,Viet Nam,1
2,2fsj9qvt,2021-03-15 10:12:09.038959+00:00,2,726,,Don't Cheat,0,0,0,1,1,52,7igvdhlu,1,15,151,0,1,2.228571429,2,2.5,2.333333333,1.5,3.5,1.6,2,1.5,2.333333333,3,1,2,Male,1,0,14,"Agribusiness, B.A.",1,2,18-24,Viet Nam,1
2,2fsj9qvt,2021-03-15 10:12:09.038959+00:00,2,740,,Don't Cheat,0,0,0,1,1,53,7igvdhlu,1,15,151,0,1,2.228571429,2,2.5,2.333333333,1.5,3.5,1.6,2,1.5,2.333333333,3,1,2,Male,1,0,14,"Agribusiness, B.A.",1,2,18-24,Viet Nam,1
2,2fsj9qvt,2021-03-15 10:12:09.038959+00:00,2,754,,Don't Cheat,0,0,0,1,1,54,7igvdhlu,1,15,151,0,1,2.228571429,2,2.5,2.333333333,1.5,3.5,1.6,2,1.5,2.333333333,3,1,2,Male,1,0,14,"Agribusiness, B.A.",1,2,18-24,Viet Nam,1
2,2fsj9qvt,2021-03-15 10:12:09.038959+00:00,2,768,,Don't Cheat,0,0,0,1,1,55,7igvdhlu,1,15,151,0,1,2.228571429,2,2.5,2.333333333,1.5,3.5,1.6,2,1.5,2.333333333,3,1,2,Male,1,0,14,"Agribusiness, B.A.",1,2,18-24,Viet Nam,1
2,2fsj9qvt,2021-03-15 10:12:09.038959+00:00,2,782,,Don't Cheat,0,0,0,1,1,56,7igvdhlu,1,15,151,0,1,2.228571429,2,2.5,2.333333333,1.5,3.5,1.6,2,1.5,2.333333333,3,1,2,Male,1,0,14,"Agribusiness, B.A.",1,2,18-24,Viet Nam,1
2,2fsj9qvt,2021-03-15 10:12:09.038959+00:00,2,796,,Don't Cheat,0,0,0,1,1,57,7igvdhlu,1,15,151,0,1,2.228571429,2,2.5,2.333333333,1.5,3.5,1.6,2,1.5,2.333333333,3,1,2,Male,1,0,14,"Agribusiness, B.A.",1,2,18-24,Viet Nam,1
2,2fsj9qvt,2021-03-15 10:12:09.038959+00:00,2,810,,Don't Cheat,0,0,0,1,1,58,7igvdhlu,1,15,151,0,1,2.228571429,2,2.5,2.333333333,1.5,3.5,1.6,2,1.5,2.333333333,3,1,2,Male,1,0,14,"Agribusiness, B.A.",1,2,18-24,Viet Nam,1
2,2fsj9qvt,2021-03-15 10:12:09.038959+00:00,2,824,,Don't Cheat,0,0,0,1,1,59,7igvdhlu,1,15,151,0,1,2.228571429,2,2.5,2.333333333,1.5,3.5,1.6,2,1.5,2.333333333,3,1,2,Male,1,0,14,"Agribusiness, B.A.",1,2,18-24,Viet Nam,1
2,2fsj9qvt,2021-03-15 10:12:09.038959+00:00,2,838,,Don't Cheat,0,0,0,1,1,60,7igvdhlu,1,15,151,0,1,2.228571429,2,2.5,2.333333333,1.5,3.5,1.6,2,1.5,2.333333333,3,1,2,Male,1,0,14,"Agribusiness, B.A.",1,2,18-24,Viet Nam,1
2,2fsj9qvt,2021-03-15 10:12:09.038959+00:00,2,852,,Don't Cheat,0,0,0,1,1,61,7igvdhlu,1,15,151,0,1,2.228571429,2,2.5,2.333333333,1.5,3.5,1.6,2,1.5,2.333333333,3,1,2,Male,1,0,14,"Agribusiness, B.A.",1,2,18-24,Viet Nam,1
2,2fsj9qvt,2021-03-15 10:12:09.038959+00:00,2,866,,Don't Cheat,0,0,0,1,1,62,7igvdhlu,1,15,151,0,1,2.228571429,2,2.5,2.333333333,1.5,3.5,1.6,2,1.5,2.333333333,3,1,2,Male,1,0,14,"Agribusiness, B.A.",1,2,18-24,Viet Nam,1
2,2fsj9qvt,2021-03-15 10:12:09.038959+00:00,2,880,,Don't Cheat,0,0,0,1,1,63,7igvdhlu,1,15,151,0,1,2.228571429,2,2.5,2.333333333,1.5,3.5,1.6,2,1.5,2.333333333,3,1,2,Male,1,0,14,"Agribusiness, B.A.",1,2,18-24,Viet Nam,1
2,2fsj9qvt,2021-03-15 10:12:09.038959+00:00,2,894,,Don't Cheat,0,0,0,1,1,64,7igvdhlu,1,15,151,0,1,2.228571429,2,2.5,2.333333333,1.5,3.5,1.6,2,1.5,2.333333333,3,1,2,Male,1,0,14,"Agribusiness, B.A.",1,2,18-24,Viet Nam,1
2,2fsj9qvt,2021-03-15 10:12:09.038959+00:00,2,908,,Don't Cheat,0,0,0,1,1,65,7igvdhlu,1,15,151,0,1,2.228571429,2,2.5,2.333333333,1.5,3.5,1.6,2,1.5,2.333333333,3,1,2,Male,1,0,14,"Agribusiness, B.A.",1,2,18-24,Viet Nam,1
2,2fsj9qvt,2021-03-15 10:12:09.038959+00:00,2,922,,Don't Cheat,0,0,0,1,1,66,7igvdhlu,1,15,151,0,1,2.228571429,2,2.5,2.333333333,1.5,3.5,1.6,2,1.5,2.333333333,3,1,2,Male,1,0,14,"Agribusiness, B.A.",1,2,18-24,Viet Nam,1
2,2fsj9qvt,2021-03-15 10:12:09.038959+00:00,2,936,,Don't Cheat,0,0,0,1,1,67,7igvdhlu,1,15,151,0,1,2.228571429,2,2.5,2.333333333,1.5,3.5,1.6,2,1.5,2.333333333,3,1,2,Male,1,0,14,"Agribusiness, B.A.",1,2,18-24,Viet Nam,1
2,2fsj9qvt,2021-03-15 10:12:09.038959+00:00,2,950,,Don't Cheat,0,0,0,1,1,68,7igvdhlu,1,15,151,0,1,2.228571429,2,2.5,2.333333333,1.5,3.5,1.6,2,1.5,2.333333333,3,1,2,Male,1,0,14,"Agribusiness, B.A.",1,2,18-24,Viet Nam,1
2,2fsj9qvt,2021-03-15 10:12:09.038959+00:00,2,964,,Don't Cheat,0,0,0,1,1,69,7igvdhlu,1,15,151,0,1,2.228571429,2,2.5,2.333333333,1.5,3.5,1.6,2,1.5,2.333333333,3,1,2,Male,1,0,14,"Agribusiness, B.A.",1,2,18-24,Viet Nam,1
2,2fsj9qvt,2021-03-15 10:12:09.038959+00:00,2,978,,Don't Cheat,0,0,0,1,1,70,7igvdhlu,1,15,151,0,1,2.228571429,2,2.5,2.333333333,1.5,3.5,1.6,2,1.5,2.333333333,3,1,2,Male,1,0,14,"Agribusiness, B.A.",1,2,18-24,Viet Nam,1
25,3cruabz9,2021-03-16 10:25:08.499008+00:00,1,11,Control,,1,0,1,0,13,1,7bguhhna,1,16,1613,1,0,1.4,1,1.166666667,1.666666667,2,1.5,1.8,1,1.5,1,2,1,1,Female,2,11,0,Gender and Diversity,14,2,18-24,Germany,1
25,3cruabz9,2021-03-16 10:25:08.499008+00:00,1,22,Control,,1,0,1,0,13,2,7bguhhna,1,16,1613,2,0,1.4,1,1.166666667,1.666666667,2,1.5,1.8,1,1.5,1,2,1,1,Female,2,11,0,Gender and Diversity,14,2,18-24,Germany,2
25,3cruabz9,2021-03-16 10:25:08.499008+00:00,1,33,Control,,1,0,1,0,13,3,7bguhhna,1,16,1613,3,0,1.4,1,1.166666667,1.666666667,2,1.5,1.8,1,1.5,1,2,1,1,Female,2,11,0,Gender and Diversity,14,2,18-24,Germany,3
25,3cruabz9,2021-03-16 10:25:08.499008+00:00,1,44,Control,,1,0,1,0,13,4,7bguhhna,1,16,1613,4,0,1.4,1,1.166666667,1.666666667,2,1.5,1.8,1,1.5,1,2,1,1,Female,2,11,0,Gender and Diversity,14,2,18-24,Germany,4
25,3cruabz9,2021-03-16 10:25:08.499008+00:00,1,55,Control,,1,0,1,0,13,5,7bguhhna,1,16,1613,5,0,1.4,1,1.166666667,1.666666667,2,1.5,1.8,1,1.5,1,2,1,1,Female,2,11,0,Gender and Diversity,14,2,18-24,Germany,5
25,3cruabz9,2021-03-16 10:25:08.499008+00:00,1,66,Control,,1,0,1,0,13,6,7bguhhna,1,16,1613,6,0,1.4,1,1.166666667,1.666666667,2,1.5,1.8,1,1.5,1,2,1,1,Female,2,11,0,Gender and Diversity,14,2,18-24,Germany,6
25,3cruabz9,2021-03-16 10:25:08.499008+00:00,1,80,Don't Control,,0,0,0,1,13,7,7bguhhna,1,16,1613,6,0,1.4,1,1.166666667,1.666666667,2,1.5,1.8,1,1.5,1,2,1,1,Female,2,14,0,Gender and Diversity,14,2,18-24,Germany,6
25,3cruabz9,2021-03-16 10:25:08.499008+00:00,1,94,Don't Control,,0,0,0,1,13,8,7bguhhna,1,16,1613,6,0,1.4,1,1.166666667,1.666666667,2,1.5,1.8,1,1.5,1,2,1,1,Female,2,14,0,Gender and Diversity,14,2,18-24,Germany,6
25,3cruabz9,2021-03-16 10:25:08.499008+00:00,1,108,Don't Control,,0,0,0,1,13,9,7bguhhna,1,16,1613,6,0,1.4,1,1.166666667,1.666666667,2,1.5,1.8,1,1.5,1,2,1,1,Female,2,14,0,Gender and Diversity,14,2,18-24,Germany,6
25,3cruabz9,2021-03-16 10:25:08.499008+00:00,1,119,Control,,1,0,1,0,13,10,7bguhhna,1,16,1613,7,0,1.4,1,1.166666667,1.666666667,2,1.5,1.8,1,1.5,1,2,1,1,Female,2,11,0,Gender and Diversity,14,2,18-24,Germany,7
25,3cruabz9,2021-03-16 10:25:08.499008+00:00,1,133,Don't Control,,0,0,0,1,13,11,7bguhhna,1,16,1613,7,0,1.4,1,1.166666667,1.666666667,2,1.5,1.8,1,1.5,1,2,1,1,Female,2,14,0,Gender and Diversity,14,2,18-24,Germany,7
25,3cruabz9,2021-03-16 10:25:08.499008+00:00,1,144,Control,,1,0,1,0,13,12,7bguhhna,1,16,1613,8,0,1.4,1,1.166666667,1.666666667,2,1.5,1.8,1,1.5,1,2,1,1,Female,2,11,0,Gender and Diversity,14,2,18-24,Germany,8
25,3cruabz9,2021-03-16 10:25:08.499008+00:00,1,155,Control,,1,0,1,0,13,13,7bguhhna,1,16,1613,9,0,1.4,1,1.166666667,1.666666667,2,1.5,1.8,1,1.5,1,2,1,1,Female,2,11,0,Gender and Diversity,14,2,18-24,Germany,9
25,3cruabz9,2021-03-16 10:25:08.499008+00:00,1,169,Don't Control,,0,0,0,1,13,14,7bguhhna,1,16,1613,9,0,1.4,1,1.166666667,1.666666667,2,1.5,1.8,1,1.5,1,2,1,1,Female,2,14,0,Gender and Diversity,14,2,18-24,Germany,9
25,3cruabz9,2021-03-16 10:25:08.499008+00:00,1,183,Don't Control,,0,0,0,1,13,15,7bguhhna,1,16,1613,9,0,1.4,1,1.166666667,1.666666667,2,1.5,1.8,1,1.5,1,2,1,1,Female,2,14,0,Gender and Diversity,14,2,18-24,Germany,9
25,3cruabz9,2021-03-16 10:25:08.499008+00:00,1,197,Don't Control,,0,0,0,1,13,16,7bguhhna,1,16,1613,9,0,1.4,1,1.166666667,1.666666667,2,1.5,1.8,1,1.5,1,2,1,1,Female,2,14,0,Gender and Diversity,14,2,18-24,Germany,9
25,3cruabz9,2021-03-16 10:25:08.499008+00:00,1,208,Control,,1,0,1,0,13,17,7bguhhna,1,16,1613,10,0,1.4,1,1.166666667,1.666666667,2,1.5,1.8,1,1.5,1,2,1,1,Female,2,11,0,Gender and Diversity,14,2,18-24,Germany,10
25,3cruabz9,2021-03-16 10:25:08.499008+00:00,1,222,Don't Control,,0,0,0,1,13,18,7bguhhna,1,16,1613,10,0,1.4,1,1.166666667,1.666666667,2,1.5,1.8,1,1.5,1,2,1,1,Female,2,14,0,Gender and Diversity,14,2,18-24,Germany,10
